time,ax,ay,az,wx,wy,wz
1682026711.811834,1.294767617503812,-0.06014234573394181,9.704214781180342,0.0006554498712287823,-0.0016740394033826055,0.0017252256856013
1682026711.8218691,1.2853670198636433,-0.17767369978062394,9.704692384276742,-3.334788330320042e-05,-0.000789667122302183,-0.0001225132856629
1682026711.8318014,1.3788283636401863,-0.04303574029780462,9.668762225379306,0.0001476871708086114,0.0010189680844274564,0.0007179069669805
1682026711.8419232,1.1572682849685945,-0.08396925044722504,9.841422148767906,-0.000333230755867349,-0.0027085540659802687,0.0022337363205738
1682026711.8517656,1.291438742429029,-0.21827899264545148,9.668824187530415,0.0014638309922475558,-0.0018036749741435702,-0.000550190581765
1682026711.8618047,1.431173940445907,0.05970759044494295,9.736543957303,-0.001989517448835623,-3.865355617062879e-05,0.0021368707401566
1682026711.8717847,1.2769940582883457,-0.018437158277411356,9.750491144533134,-0.0030601582312150665,-0.0005084170172489384,0.0020914260984286
1682026711.8819256,1.0843403248128392,-0.37702658597060335,9.761604525329423,-2.329622199159913e-05,-0.0038436598494883496,-0.0006880086276791
1682026711.8917785,1.4054935417437733,-0.020508457676714748,9.679757229668256,-8.0202718480973e-06,-0.0021069241094224295,0.0010300916490964
1682026711.9019415,1.4197105088381003,-0.21848261867509083,9.638760968373218,0.0011501503079253826,0.0008531934636261218,0.0011004701826609
1682026711.9117682,1.2595587271035555,-0.044299840489391715,9.726917731202676,0.00021549224969488853,0.0008789043340510288,-3.681449574602044e-05
1682026711.9218028,1.2685953390563802,-0.09351736037017366,9.745459829415994,-0.0014668460975621918,0.0008948953350342179,-0.0001922005450464
1682026711.9317997,1.3548470931913497,0.07991886314430828,9.72989965849398,-0.00265485390194187,0.00134827328321993,0.0026148205960057
1682026711.9418008,1.1078999946399628,-0.36869700004130257,9.781654291007083,-0.0010473875633491229,-0.0007885590945620241,-0.0023752021499089
1682026711.9517674,1.4577543672703708,-0.022515125258864118,9.627760816916394,0.0002821503462940127,0.0015505757487331384,0.0014186134957131
1682026711.96182,1.1324147166625738,-0.32785301706304004,9.742257462233573,0.0030292165949839535,-0.00118679409165024,0.0011314446909241
1682026711.9717858,1.2415305946868471,-0.029826563084946744,9.732933214455313,0.0009430246855325168,-0.0008775709050749093,-0.0013749624032638
1682026711.9818645,1.2108718788527963,-0.12670871029854927,9.783798392246927,-0.0003652724908912726,-0.002120330289007719,-0.0020712147362641
1682026711.9918137,1.4674164299836476,-0.02347809450624213,9.623298177725687,0.0004006357306211698,0.0010372217467891375,0.0007797512679249
1682026712.00191,1.1991749629853157,-0.16710090102516098,9.778178524241332,-0.00041184287183020513,-0.00023273350176036055,-0.0006984422344825
1682026712.0118048,1.3298222347000181,-0.09863546093024998,9.682507395133449,0.0012440446183953372,0.00023963746930174556,0.0010997421794459
1682026712.0218313,1.1358463984988356,-0.12611584295522252,9.82456782872566,-0.0009914890739755418,-0.0021218366769718577,-0.0015723974339775
1682026712.0322282,1.4448550269742693,0.043306560570377954,9.663796353133534,-0.0022204720669259824,0.000973145386245913,0.0003979171031974
1682026712.044127,1.2026295845929873,-0.29163988990392986,9.733898147161165,0.00026169270555279333,-0.0005203108541687395,-0.0010426539357863
1682026712.05189,1.2632257459903442,0.2228912141646115,9.828353250415688,-0.004577843933466215,-0.0007315660498582132,-0.001347386873152
1682026712.062003,1.3410516722452634,-0.41770549067273166,9.607425944111313,0.0011773540533006066,0.00039722452253839754,-0.000511059433978
1682026712.07183,1.2046851374751921,0.0027456779262753587,9.777098200063897,-4.667728173653628e-06,-0.0012571837609054624,-0.0002625842008851
1682026712.0821214,1.3049824514508566,-0.06676978511773135,9.748775900498067,-0.001817391263344867,-0.0007263265545249642,0.0001024908723198
1682026712.0922554,1.478929419748995,-0.2550897730557069,9.542912250922214,0.0022763248900070725,0.0034854805233372663,0.0002623273629583
1682026712.1020837,1.1773257775167265,-0.19877661189327606,9.784494588931867,0.0031286492514224027,0.0012693122431065894,0.0001471551239379
1682026712.1118302,1.1399904992751546,0.1341175017382041,9.858275020286031,-0.0015879062484283008,-0.0012206623639094112,-0.0007107382536045
1682026712.1218352,1.3232665854199215,-0.17141172798801627,9.70183233087609,-0.0010831493359108513,-0.00034821835106244845,-0.0002685455966852
1682026712.1318364,1.239485658801484,-0.10439270591403564,9.725068975840136,-0.0004457394936170302,-0.001142438423140093,-0.0006094059337042
1682026712.1418169,1.3247772177940753,-0.2189585578508711,9.682303619113155,0.0013002958264547585,-0.0003832390684081159,6.597778870540464e-05
1682026712.151821,1.2524500238723697,-0.04882912715209397,9.739651965143526,-0.0003716343563656836,-0.0002554533585172343,-0.0021140574373416
1682026712.1618094,1.3466726955728212,-0.10003008546609529,9.722719571548067,-0.000793329578739118,0.0005946736488102208,-0.000924923586484
1682026712.1718018,1.2131598651454807,-0.07401679239286256,9.764064422625362,-0.0010578221192285885,-0.0009409006780555915,-0.0015228445537499
1682026712.1818025,1.364919353616284,-0.06009981525258361,9.714230667059635,-0.0016635418324130631,-0.00011427142761122963,0.0009287623559944
1682026712.191808,1.2425164424557542,-0.226508585999263,9.692199276239384,0.0009072915778447722,-0.0005240678425100746,-0.0006816856458894
1682026712.2018192,1.2432877946298564,-0.13340968556633295,9.758637012728332,-2.2544800701259636e-05,-0.0010209957468077478,-0.0016532341379783
1682026712.211799,1.4333778527771037,-0.09242774139521463,9.625809380145965,0.0013479892813144081,0.0017375797681127162,-0.0004380211595557
1682026712.22207,1.272615663891946,-0.15520752929569412,9.74256051076301,0.001760747840516505,0.0009906419977701861,0.0003781494323052
1682026712.2318628,1.1841492342463447,0.028163237646524505,9.792822376273683,-0.0005772280943522122,-0.0008362238676432237,1.569731271642053e-05
1682026712.2418134,1.4110446713831022,-0.15558566215708333,9.660895612137127,-0.00012089049006465897,0.0015252278040372995,0.0005346259439252
1682026712.2518902,1.2304738943772984,-0.08509732801968131,9.745071496098689,0.0012161001058140868,-0.00048268440294757097,0.0026755482993908
1682026712.2618678,1.238387153063327,-0.19175897954900398,9.744597673489379,-0.0004952863145164147,0.00011668942641680186,-0.0021345469996444
1682026712.2718573,1.3468964598941142,-0.1172419294958055,9.659586621033428,0.0006878731269961941,0.0014563102169972365,-0.0017873417947552
1682026712.2818308,1.3192322580585611,-0.05045781742996007,9.747485987595297,5.384687926473908e-06,0.0012830810100898703,0.0005141105374209
1682026712.291809,1.1925020835767137,-0.09008889875682383,9.761482175739003,0.0003898397066166106,-0.0005359857207879207,0.0007085794221498
1682026712.302169,1.2991292555381595,-0.15976035096622557,9.725550433831076,-0.00012463667284733144,1.0150134230906903e-05,-0.0003784509737156
1682026712.3118093,1.2677270243300593,-0.09085109832346619,9.719804786777035,0.0002955914367609718,-0.00038360169065653095,9.020300227033698e-05
1682026712.3230438,1.265643646927415,-0.18353976109801026,9.721659603303584,0.0022781918386136674,-0.001558197486498276,0.0016447887190738
1682026712.332941,1.3523429818121604,0.0218421745170981,9.715594273336917,-0.0010511245945736864,0.0007213137427633439,-0.0006980715680978
1682026712.341822,1.2667971246285963,-0.11603195359698451,9.755441320239017,-0.000917380108200324,-0.0002897448233315119,0.0006068869132437
1682026712.3518207,1.3461947421841132,-0.10335630946097431,9.68495666290823,-0.0018412233355872378,0.001925306378519728,-0.0018372918840609
1682026712.361887,1.3740269268228604,-0.10250621747961983,9.702621343199349,-0.0019336584546810493,0.003049586172459898,-0.0001296374376974
1682026712.371829,1.0782671109698734,-0.18771650573197737,9.79153828887223,-0.0010712074977458062,-0.0005668596815274783,-0.0018000042893103
1682026712.382475,1.2978286817398443,-0.03299327469728565,9.769368929388035,-0.001996591818081604,-0.0014263288677378917,0.0011243407951556
1682026712.392689,1.3061416948265443,-0.10619091404689747,9.685888937350986,-0.002703996698182024,6.059905839054327e-06,-0.0010005765490345
1682026712.4036226,1.3086317763067306,-0.17004550200319515,9.702687099797034,-0.0019232156134006877,0.000578622332781015,-0.0010028079979233
1682026712.4118326,1.2093866849852388,-0.13841174461803346,9.745354896151106,-0.0013130034541248478,-0.0004867997601042784,-0.0016096519667766
1682026712.421853,1.3192257376952943,-0.12694212807716213,9.732242963187131,-0.0004174258480592223,-0.000741607822100981,0.0002127624919526
1682026712.4319994,1.22443769999712,-0.13974749271446557,9.727269725904295,0.0015122698497916267,-0.002532721869533379,0.0020847280846797
1682026712.441867,1.3093711137214685,-0.12509724683641973,9.71720875677761,-0.00037981615473602336,-0.0009305013608521478,-0.0007688634924702
1682026712.451848,1.2405995519987296,-0.109071346304312,9.729808299426335,-0.00026393930883313147,-0.0017213630415727165,-0.0009789563611261
1682026712.4618442,1.3803772397181533,-0.0945783085514129,9.70453202036527,-0.00044538378225787907,-9.117407282131844e-05,-0.0001769077627099
1682026712.4730167,1.2459291271592448,-0.17340036625101823,9.698241369513239,0.0015379778082154248,-0.0011148743928625108,0.0003584264648966
1682026712.4823704,1.3183387017800912,-0.055474559024371095,9.725325488616287,0.0003674826842776901,-0.0006518240311912947,0.0012495068821013
1682026712.4919307,1.0791429108391268,-0.16894109878678903,9.79670227262435,0.0006040622327124232,-0.003628325229613699,-0.0015090630751214
1682026712.5018337,1.4676393873596136,-0.19094154703741664,9.607235152448204,0.002053542819798358,3.7727486216721365e-05,-0.0006701409712545
1682026712.5118537,1.179983803101477,0.04728550282661406,9.815621955277079,-0.00042972465376331967,-0.0023237428063470366,-0.0003870072670392
1682026712.531849,1.3744748587294302,-0.16451925421437855,9.654273616043792,0.0008886502763299495,0.0023082678772323303,-0.0032551296882442
1682026712.5424578,1.1901737601596123,0.005494530556877745,9.818880506124287,-0.0008700586730840881,-0.00044060347161026584,-0.0011242447782419
1682026712.5518208,1.1949152154743474,-0.09139556942077118,9.757585139021204,-0.0007609019688306918,-0.0021274305852776883,-0.0008943927370123
1682026712.5618412,1.4851122001200106,-0.017101442380398922,9.66275887045627,-0.002321424999740417,0.0014596622105730538,0.0006825165927298
1682026712.571854,1.230276056459502,-0.17607439482025478,9.713755360658562,-0.00110251729669599,0.0008479792973024399,-0.0004406439967564
1682026712.5818503,1.1650109632865957,-0.14184801356946194,9.806678290360656,-0.0017846208633379404,-0.001454259076720328,-0.0019341196294985
1682026712.5918102,1.3618831582827806,-0.15827179212779385,9.649857118295392,0.0005831813060141516,-0.000303151188039606,-5.21163584775964e-05
1682026712.6018684,1.2416733583280015,-0.10327332460698836,9.76035089550856,-0.001008998118107399,-0.000550500253349546,-0.0015437124658487
1682026712.611934,1.2519078131963197,-0.07342247979314674,9.74643835370926,-0.0012019778948067006,-0.0013331822198801673,-0.00114845846669
1682026712.6218574,1.4303392468228986,-0.1079322642184043,9.66018672920198,-0.00034703083246712157,0.0006807064544263215,0.0010881993674561
1682026712.6318262,1.321823296168753,-0.08340145896542923,9.692677155072484,-0.0012791228149774162,0.002047875043197964,-0.000526353147637
1682026712.641932,1.1558046741061012,-0.2527020034665882,9.751305653700607,0.0015886340368691616,-0.0008380847236036852,-6.701367796582377e-05
1682026712.6558533,1.1970344821541112,-0.07696616486083369,9.768023867090129,0.0010067489477133835,-0.0030818218623709184,-0.0006641772471479
1682026712.6618829,1.5877393599973608,0.060542357901242086,9.627084123362513,-0.0009121745384541052,0.0005696908382109608,0.0001002610532455
1682026712.672909,1.3136021796736932,-0.1466222552594049,9.68783381859301,0.00014136049594014904,0.0012700544964014408,-0.0001739061100519
1682026712.6926286,1.2950920988755803,-0.13989368026580234,9.71844937932907,0.0017305749624389809,0.000948926815433398,0.0020194948173016
1682026712.695418,0.9574831177553904,-0.33274062848701896,9.814634265005138,0.00192131246899185,-0.0002226680953946264,-0.0001962660009152
1682026712.7018535,1.339584564624758,0.030030228065155835,9.747023278663875,0.00016482018107414497,0.0003417094223061533,0.00061806674226
1682026712.7121444,1.2222349860184452,-0.034238628201289485,9.785111405295186,-0.001390478315547862,-0.001035530337212612,0.0005539981519691
1682026712.7218988,1.3746538060512041,-0.24139313380596591,9.641580951754294,0.000723995117489314,0.0010379720866942085,0.0003461545437462
1682026712.7318687,1.187884431035574,-0.06568741725573655,9.77479622917501,1.3588195921881913e-05,-0.000673433283827773,-0.0001433729322738
1682026712.7419956,1.2297431778856087,0.14094383932637897,9.853321697127226,-0.004372194684687224,-0.0024686729978373816,0.001996796128748
1682026712.7518473,1.38925606251265,-0.24253151010498858,9.615105818518305,-0.0017495986396220088,-0.00016493711742907328,0.0013932963937409
1682026712.761843,1.3016821962853382,-0.07745607351888456,9.732648704643271,-0.003226302969961462,0.0005637272597841535,0.0009481300820485
1682026712.7719274,1.289034921046433,-0.2858821495619544,9.65505932354677,0.0015498949164085762,0.00014948858398625728,0.0028342376334481
1682026712.781865,1.2474763218886256,-0.14575713347481434,9.744337909549767,-0.0002859258560174584,0.0007574389819886337,-0.0009208539396635
1682026712.791927,1.2344544162978581,-0.14704072695468792,9.723229074591059,0.0008279297123780748,-0.0002506006623048479,-0.000852661336597
1682026712.8018367,1.2166003212074883,-0.08131534610917157,9.780852295887906,-0.0005172823279938578,-0.0014926236426609611,-0.0014412714064232
1682026712.8118362,1.4297226301020107,0.05898254236790544,9.696303606665708,-0.0027152214554812958,0.0009243218157160134,0.0005044673906527
1682026712.821934,1.2576785590576594,-0.4163383971842081,9.641704876903486,0.0036006572663640894,0.00012975580805252822,0.0008524009480029
1682026712.8318536,1.19100055048249,0.11828694779561488,9.83736839291859,-0.0017656060906810643,-0.0012855055294255274,-0.0006507659692428
1682026712.8418906,1.357978808105952,-0.16143992623037567,9.664932426068654,0.00021065002941205309,-0.0002461420800867986,0.0013877252220995
1682026712.8523362,1.3824373483575887,-0.0964898498930518,9.66061452641714,-0.0002513086130480356,0.00249679387801302,0.0003342163853235
1682026712.8653188,1.2089572721110016,-0.13825365641353599,9.759828898006603,7.28276917476478e-05,0.0005376485048553124,0.0001278195867203
1682026712.873304,1.2121167359733722,-0.16658405658002387,9.727009581112517,0.0002445499781907031,4.5920420024218566e-05,-0.0014978920936695
1682026712.8853133,1.373055247879985,-0.19444190477481235,9.648862917360766,0.0022602883685249302,0.0023742580497153037,-0.0011771068804077
1682026712.8927598,1.1324883594167456,0.06903154130626485,9.851975008786301,7.57926767740963e-05,-0.00025323131613491813,-0.0004209234740696
1682026712.9020023,1.3573569232786429,0.049952133974269945,9.758366244170723,-0.002257738856618469,0.000371496235820922,0.0010706814226582
1682026712.9118898,1.3917011262637475,-0.2559874830000592,9.60411518055814,-8.551605296814488e-05,0.003407249678970271,-0.0006518749415985
1682026712.9219887,1.2432782877635176,-0.08934423188448516,9.758923847297455,-0.001149075071372486,0.0026681478645196126,-0.0008128086466453
1682026712.9318683,1.2461921395322964,-0.14565388842291843,9.731809039760606,0.00040658184456194885,0.00157552504654408,-4.0941535320107103e-05
1682026712.9419332,1.3152443591741787,-0.058052116143198745,9.748146715121097,0.000377167126914862,0.0010271666603362548,0.0024408391781039
1682026712.9519424,1.2611631628651956,-0.1273979322470722,9.71077573063576,-0.0008335546392360068,0.0017852691037121026,-0.0003053959354869
1682026712.961892,1.2227013391764106,-0.051076405336232235,9.777203730525542,-0.002028632312719082,0.00022993860640131009,0.0006340899143256
1682026712.9718754,1.2882472418686133,-0.20449614669745647,9.675690946861284,-0.0007176857894170664,0.0009806248675000668,-0.0007580107905082
1682026712.981913,1.1466673547937793,-0.14760215144776065,9.779331866594816,0.000157013102633392,-0.001970586053758771,6.822215969490611e-05
1682026712.9919908,1.450325820924132,-0.16029541669138594,9.602120031255275,0.0012049203206150173,0.0018698306865219476,-0.0004991361767165
1682026713.0021222,1.2278641558957604,0.0297044190477415,9.81125773635317,-0.0005575162390701125,-0.00020218254974921346,0.0021234507602062
1682026713.0134034,1.194373729272545,-0.23651526022331562,9.71847671943753,0.0016001840475812787,-0.0015328482777181407,0.0001390025589503
1682026713.023173,1.3160103770340956,-0.03055839308199118,9.738231000437407,-0.00016337933704430206,-0.0006939173785484843,0.0002287800760828
1682026713.0320785,1.2519011260068624,-0.1665143106333795,9.71345716354977,0.001235850061344165,-0.0013086062972130985,0.0005469078767933
1682026713.0429652,1.307751528738309,0.042081376817409935,9.781590733229088,-0.0024242441751552387,-0.0007781206430527393,0.0007551582401506
1682026713.0553467,1.2226459408265473,-0.3068881483484935,9.683523287111004,0.001995079083514946,-0.0019947807439190304,-0.0010527101241163
1682026713.074726,1.3546466817111449,-0.054953803090961116,9.691348358647517,0.0010231305501909966,0.0003886370863238536,0.0006973821308352
1682026713.0818794,1.1186177566629403,-0.20162424763342793,9.800528400232107,0.0013900783326721397,-0.0016930441761211852,-0.0006924857281259
1682026713.0920105,1.2435143107070374,-0.07114886018056102,9.765791470681396,0.0014012562467432968,-0.0029894614393700513,0.0001386334059648
1682026713.1018853,1.340592300442342,-0.10367235831569632,9.687996962513452,0.0005354964747355669,-0.0016814991498511403,0.00021610756981
1682026713.1118746,1.2988419409300491,-0.11213887616843109,9.69645171833531,-0.00048525001322803196,-0.00040632221274401287,-0.001797030343499
1682026713.122023,1.3208036796899518,-0.022715041456441917,9.758062615602894,-0.0014396444183164085,-0.0005482598190863648,0.0006780520651377
1682026713.131881,1.3541626377425535,-0.017662117804138636,9.715282993694295,-0.002298350508243611,0.00034653947702216985,0.0022497461048774
1682026713.1418748,1.1701643481955615,-0.38878320336812006,9.702206755253053,0.0024916495830883184,-0.0016487112879813026,0.0006650176236294
1682026713.1518867,1.4838746321417866,-0.0017056526676576206,9.639813652819608,-4.0469631979575146e-05,0.003108493623760742,-0.0003188153624646
1682026713.1619043,1.0410391208936904,-0.14264965721824305,9.847896723815627,0.0004669566247115913,-0.0019083708642329857,-0.000547195448365
1682026713.171943,1.4742740663936988,0.01768096814126301,9.655640989114586,-0.0011122134709435167,0.0015609942467654813,0.0014190204545744
1682026713.1818707,1.139840952275198,-0.2365185427872736,9.769230154745255,0.0007731678112026277,-0.0012530841103513995,0.0006791624344773
1682026713.1918962,1.3438558608064897,0.014011895138337385,9.724759362626425,-0.0013047971501457076,-0.00020665883920532762,0.0015214587636878
1682026713.201931,1.3172635583457284,-0.1672299919653832,9.692527959330627,-0.0008995102951997761,0.0007552114928339206,0.0007629762275032
1682026713.2118645,1.2949939793460896,-0.1644324343362379,9.693508569307221,-0.00011718233896656393,0.0014254044693779598,-0.0001649567986018
1682026713.222146,1.180835312903446,0.06940046351510057,9.852985022625582,-0.003337681670848094,-0.0014650572847541734,0.0014313081500008
1682026713.2319534,1.5373028622672258,-0.302250359998836,9.51271307581196,0.0005995585736418781,0.004055082273749789,0.0013634842342585
1682026713.2418814,1.0786694701463948,-0.2153433137629682,9.801366726807563,0.0018095309735136407,0.0004676292972742685,-0.0001415280986688
1682026713.2519438,1.3041221641727876,-0.03684304127157096,9.736374669989058,0.0008014813369846586,0.0005309456143578648,0.0006568038241826
1682026713.261928,1.2742557279610511,-0.08850405257085023,9.746693580320528,-0.0008100777999623585,0.0009291820885979897,-0.0011361731577776
1682026713.2719817,1.2020346341217052,-0.1620285877705614,9.743698152296053,0.00032239434222153983,-0.0007874235535485364,-0.0010657637741528
1682026713.28206,1.369610338446945,-0.14659756191958298,9.667382478287823,0.0005571074047733309,0.001105376813672715,-0.0011633770901821
1682026713.2918892,1.22246340610636,-0.1286350605266462,9.744812347324249,0.001572623915854061,-0.0004040995057712509,-0.0003091549862287
1682026713.3018944,1.2444077784047471,-0.1566491535956416,9.73352192101729,0.0017737622714422295,-0.0010761329017666295,-0.001361565328028
1682026713.3119245,1.2945136554396293,0.046452882204686845,9.776470089787157,-0.001139020630538798,-0.0009781418057296634,-0.001406240406271
1682026713.3219404,1.3397266970279484,-0.14877346241041672,9.687601021443479,0.00015218165896565278,-0.0003567917390057592,0.0002041832648106
1682026713.3319032,1.2634680518312509,-0.1270171986792948,9.716688878238664,2.960271676169726e-05,-0.00048419780739503767,-0.0004358167190216
1682026713.3418863,1.3156545671328816,-0.04219799599780456,9.728547067339344,-0.0011535584071972003,-0.00013140710818927804,0.0005011007759608
1682026713.3519783,1.2990904531689416,-0.2491456294037117,9.664542893437895,1.3619791383335823e-05,0.0014585622284360748,-0.0030591486849002
1682026713.36189,1.2942127491546296,-0.10211268242940877,9.71535986064638,0.0014083150897668069,0.0007395693021264518,0.0004541365068294
1682026713.3718877,1.2890431334255077,-0.030867063737996834,9.740149053869105,-7.433695297786565e-05,0.0007865035598755895,0.000650850926701
1682026713.385315,1.2477633837484985,-0.14047676588472333,9.733555759656008,-0.001339825278309688,0.0010032916080633491,-0.0027347075648717
1682026713.3919735,1.2953826964080115,0.10782878888610797,9.785627680408671,-0.002804246553947568,0.0002124232600542143,-0.000127722289238
1682026713.4019396,1.2327296587449175,-0.23549991580251806,9.716831604655923,-0.00032168555345192827,-0.0010209992181569962,3.43298178054651e-05
1682026713.412064,1.2523491487842893,-0.16046785738002675,9.72405140090535,-0.00033622386145041016,-0.0009282217167593752,-0.0021885529987625
1682026713.421918,1.327489684331563,-0.1848073651465266,9.682909410979446,0.0020501975351179163,-0.0007617492737894283,-9.236113523316775e-05
1682026713.4319072,1.3310799880028796,0.026543767540057432,9.737520497287527,-0.00047034795754951497,0.00022175245789694128,0.0004452194424234
1682026713.4419024,1.2260752627716154,-0.20841619173909534,9.733478280781059,0.0014407391557869948,-0.0010418657131325496,0.0007514291081466
1682026713.4518943,1.2952720340391357,-0.10486816687437178,9.722821599915806,0.0009516105581304058,-0.0004864194754879483,0.0001539100065715
1682026713.4619212,1.3298706009834411,-0.041172144345036195,9.725761680780213,-0.0005012547605418022,0.0006129118153438415,0.0002928713673614
1682026713.4719205,1.3552653343575414,-0.09492240468463928,9.675436376686756,0.0008484229192599281,0.001403037827609139,0.002804823323328
1682026713.4819736,1.2348770822906323,-0.20245188227504698,9.737884159804109,0.00227296074119294,0.0004065462435107549,0.0021737557998281
1682026713.4919765,1.2959291121889185,-0.07564051635930857,9.724857730790553,0.0004997314357124475,0.0012730242709081193,0.0003874482225515
1682026713.5019422,1.1633289674544551,0.02218504062595998,9.843237453526436,-0.0023784168493436873,-0.0013805224890739362,0.0005666564555727
1682026713.5119038,1.3526977023088487,-0.1909920334178803,9.654484163881882,-0.0011293446021379925,0.0005704532479498991,-0.0008556168887875
1682026713.5223083,1.348920566150716,8.396566846445527e-05,9.729782604521471,-0.0019466645004309394,0.0009254586717081089,0.002320158107847
1682026713.5319102,1.2201138846492805,-0.14195408946319624,9.754986449021272,-0.0005478140695339217,-0.000794514740916721,0.0029799205820895
1682026713.5419145,1.2194315133443845,-0.06250533246527039,9.7742417017927,-0.0023061550032607504,-0.0017109293533480025,0.0017930254633543
1682026713.5519812,1.2592332481412296,-0.2507518003800672,9.681027032487131,-0.0008707939899120488,-0.0011420568938974645,-0.0011983715359233
1682026713.561953,1.3710958994059605,-0.1430344662091845,9.665138285679703,0.00038983021711056284,0.00014463750598829454,0.0003479807508997
1682026713.5719454,1.2391380004338632,-0.11000162827382105,9.749312091547635,-0.0001857050112860619,-0.0003832475518422719,-0.0008474629268161
1682026713.581986,1.2446594965897224,-0.08967060096212685,9.755497183576852,0.0008275605950213446,-0.0023259587244115407,0.0020642299658507
1682026713.591916,1.3911463350559827,-0.09342169323195548,9.656586806431594,-0.001349181770607446,0.0012733979472775074,-0.0017363092757872
1682026713.6019626,1.1571445458074245,-0.18288768400002445,9.765508970556304,0.0009672745555864987,-0.0018338520163331687,0.0002038352994136
1682026713.6119506,1.2171620118017616,-0.053696992413404754,9.78031327147609,9.703046645420662e-05,-0.003334030154887583,-8.91172216457522e-06
1682026713.6219697,1.4158386727801313,-0.06921629734004406,9.662680048320906,-0.0004561744172408572,-0.0009971643527983886,0.0013445054517947
1682026713.6319575,1.3364072306030537,-0.16854699073331753,9.665910054571123,0.0002613210301580081,0.0005618666516083965,0.0005010935582109
1682026713.6419604,1.1669182936376663,-0.2615223378702105,9.73802410760117,0.0021280533310231186,-0.000945762691868231,-0.00191774092504
1682026713.6519575,1.368219537816826,0.07515788716513404,9.731487889240597,-0.0008011453547349429,0.0005674557258271616,-0.0002014921175427
1682026713.6619325,1.2720304966060345,-0.1623414894767301,9.734042690023573,0.00022069135567668214,2.350059874188389e-06,-0.0003113838739804
1682026713.671914,1.3384545549466078,-0.2023707969625037,9.656559983680914,0.001828138535882768,0.001444034220308844,-0.0008746689546964
1682026713.6819243,1.2618768162529919,0.09170912126062387,9.792844620430637,-0.0004904458032112117,-2.2622680893439895e-05,0.0030458395939208
1682026713.6919267,1.3570709707181616,-0.15480349480853456,9.673537917612498,-0.0009028293065813874,0.0022837027501038075,0.0002693888835497
1682026713.701916,1.1905966667630319,-0.21053606614105141,9.736917532878257,0.0007310689705641141,0.0006021049914712783,-0.0003933463141433
1682026713.7121158,1.3017217939036223,-0.13920483213316828,9.69599408863399,0.0012857456676511128,0.0014116250837303505,-0.0006813096243999
1682026713.7219143,1.2642707375930409,-0.05184903057254891,9.762934443924584,-0.00045992091214690505,0.0010931160471696105,-0.0013410389784835
1682026713.7319448,1.2594266892484438,-0.25976962506880913,9.688844000358248,0.003999263226310883,-0.00018277648021656524,0.0007648655317612
1682026713.741952,1.1758743317984282,0.12666318258281506,9.862233956471707,-0.0009017129170565857,-0.002732405930727414,0.001559827536636
1682026713.7519498,1.3435752958223308,-0.14897226432837452,9.67730449594472,-0.0007527108930145044,-0.0010221256324222418,0.0002589513186253
1682026713.7619245,1.265695225994231,-0.09571971969127864,9.739915955067337,-0.00226780077928632,-0.0006701043879739606,-0.0015425974398962
1682026713.772298,1.3959810284403622,-0.19912045193947425,9.62568606722052,0.0016839940915320366,0.0005380464968484277,0.0018261974999918
1682026713.7840524,1.1456708319027218,-0.1293591014496046,9.79431887037475,0.0009739695479498005,-0.002296535993124934,-0.0001742980804405
1682026713.7919571,1.3434158619134773,0.05301122001555811,9.739757529586281,-0.0012638294370917167,-0.0014449371348420822,0.0004549046151228
1682026713.801962,1.339030814774651,-0.052578444370992,9.721676996393231,-0.0025862994747073115,-0.00040857716491572715,0.0005782071838043
1682026713.8119545,1.2964653984279535,-0.16110196909571733,9.691128729956395,-0.0015197554008286231,-0.00011613695083922891,0.0004057288041226
1682026713.8351393,1.2960808217830646,-0.13584308734821243,9.70887044145659,0.0011282021043110607,-0.00030352995421907986,0.0018690262530586
1682026713.8420513,1.3536950170902826,0.09687812190842135,9.76821963799642,-0.002463736019298869,0.0009485543322935853,0.001087829108525
1682026713.8519144,1.1376298743758486,-0.19776840583685146,9.763068254274028,-0.0017302194556864925,-0.0012583070328470182,-0.0011067389406375
1682026713.8619478,1.31143639339485,-0.21109797057857352,9.680830278357181,0.0005857858558500008,-0.0010012567296391569,-0.0002070791216678
1682026713.8720298,1.3460297465357578,-0.07791504495884852,9.700545386311074,-0.00033546554253621464,0.00032605232944300826,-0.0003665246896557
1682026713.8819594,1.2882199067598104,-0.17595862798320278,9.699560515868383,0.0008905184397832008,0.0005358022321912291,-0.0005747542146704
1682026713.8920245,1.3047368462885023,0.007658896992543985,9.758702635831382,-0.0002080713961986931,6.789680189925632e-05,0.001929373482068
1682026713.9020095,1.3460633454113615,-0.20594288039122716,9.659091148451536,0.000956432284727824,0.0016932573205856102,0.0012118851753771
1682026713.9120228,1.3069524500901,-0.08711779541450032,9.719207336307688,0.0016106085131935394,0.0013855407646211901,0.0033483340974785
1682026713.9220755,1.1625578325919366,-0.13896704855901548,9.783882935963176,3.147477717614657e-05,0.00017928291898897867,-0.0006112706743292
1682026713.931953,1.1938577735190394,-0.15409271742273123,9.76417495135793,0.0005965770698533999,-0.0015637892148736823,-0.0012900281127653
1682026713.9419472,1.4052600409335483,-0.08886610057089998,9.676262089549382,0.0008200938064514257,0.00040392560459387656,4.623177106308544e-05
1682026713.9519353,1.1325738725243775,-0.1074159296554005,9.79341266335298,0.0001674392891866015,-0.0021136286497690526,-0.0012244564842544
1682026713.9620056,1.4201663616988327,-0.12422403685657281,9.65014290233632,0.00126416841856651,5.8573047373708e-05,0.0006810163484774
1682026713.971955,1.2631444129334655,-0.06863100182949192,9.753048138320391,2.6986326219406616e-05,-0.00019361352952464186,-5.992689524960912e-05
1682026713.9819949,1.2326255222967772,-0.17873500995846034,9.723342390345941,0.0011807206706979838,-0.0012270175801084994,-0.0005006325792632
1682026713.991949,1.3584185173459367,-0.09695508478289785,9.681221212449644,0.00043526968172119497,0.0006259493240804887,-0.0014628811169527
1682026714.0019486,1.2860120029022957,-0.014497495492767827,9.757060042565074,-0.0008778732298954095,0.00019418073582374096,-0.0001802594762406
1682026714.0119507,1.245494524295132,-0.1365477921115904,9.745574096963704,0.00018792834521715165,-0.000957681551369333,0.0003863556647561
1682026714.0219724,1.3200513899475923,-0.06514964282327583,9.725216852014528,-0.0007523359723755425,-0.0002617891084803792,0.0004213816590495
1682026714.0319688,1.2820243895162577,-0.23404862653370362,9.676447252876741,0.0018691563804709443,-0.00042495813267610276,0.0008278206094987
1682026714.0420012,1.4309671939790445,0.035170762967170796,9.689733839141176,0.0003935235490040275,0.001527474354977851,0.0039901990547664
1682026714.0519474,1.109585063050828,-0.17849504664565846,9.802416521784778,0.0006699814291349826,-0.0015920856849116233,0.0015684012049464
1682026714.0619397,1.311635361506959,-0.14577693899191416,9.701699053653957,0.00025571076339828727,-0.0003232498817570663,-0.0003829166654608
1682026714.0719676,1.2526576789642072,-0.14910002625186383,9.717921930538262,0.000988860420822422,-0.0009200429345539195,-0.0006995642453543
1682026714.0820813,1.2738733111084635,-0.2119162729521132,9.69907937513406,0.0037325432584532302,-0.0016270818118609349,0.000831180122856
1682026714.0919857,1.3633610055243421,0.03755694562608101,9.7249601554629,0.000278068167747034,0.00030669199401413163,0.0003662356046848
1682026714.1020038,1.3252197051675731,0.006359381610763998,9.7387314502905,-0.0010112400502200873,0.00033871675606021663,0.0031006213847436
1682026714.1119382,1.1238417308441866,-0.25848311419031494,9.754805097131362,0.000504578724623102,-0.0020126717923315326,0.000550640501257
1682026714.121951,1.3635861752590144,-0.019388612928181462,9.721955787803429,-0.0022439585736739086,-1.1459379343489297e-05,-0.0008556515805534
1682026714.131945,1.316484089880567,-0.10911685638621924,9.70825608242391,-0.0015365108861150041,0.00019195359277747104,0.0004582652926333
1682026714.1419663,1.2702276296129549,-0.2509146360643059,9.688730639820296,0.0018017222763501487,-0.00040110702406716926,0.0013549384765215
1682026714.1519916,1.274142921761996,-0.10599471268372919,9.728434639643885,0.0009635357750628267,-0.0001720163513536074,0.0002276598114408
1682026714.1619902,1.348061701360701,-0.022859644914346382,9.710205028864571,-0.001026522737062136,0.0012983533590385135,4.064034315573776e-05
1682026714.172026,1.2103962110748938,-0.1270193055956672,9.750893489058017,6.79667353945804e-05,-0.0007654426876276597,0.0013649940536711
1682026714.18198,1.3058623940331304,-0.22067174767631326,9.681048275275447,0.0018523954720562872,6.23150325773259e-05,0.0006631661543511
1682026714.191988,1.248196755048832,-0.012620489599197236,9.770258264947289,-0.00044872289344293273,-0.0002558357545800909,-6.179652531814969e-05
1682026714.2019582,1.3649359171263573,-0.029974097544027852,9.713332449379047,-0.0017931998695722292,0.001182486880067392,0.0008378482178673
1682026714.212178,1.1691871123178474,-0.12793807784994105,9.770923465317928,-0.0022580981015679724,-0.0005545909098978273,-0.0008496834326646
1682026714.2220578,1.292326841205425,-0.09666118604971997,9.737484674209123,-0.002356816790750568,-0.0007703003812995927,-0.0001675981458388
1682026714.2320375,1.2656691275174072,-0.2185092506866852,9.701589175539494,0.0009437917317301287,-0.001705706894511499,0.001578445286083
1682026714.2419746,1.4194337345788206,-0.1722516624467838,9.633760308752214,0.00025869022134913065,0.0022498247826968523,-0.001827928832557
1682026714.252022,1.0904650370922677,-0.02411843262067436,9.86299108617074,-0.0006837798860293832,-0.0024738727668454363,-6.439747643840706e-05
1682026714.2621655,1.4717464274180785,-0.03718886559724226,9.654294498437075,-0.0017630078381067314,0.0010036916523094288,0.0010554153576381
1682026714.2719934,1.2060901846990006,-0.10036469470314506,9.766993578956525,-0.000979957080618369,-0.0011469220634554452,0.0029884781559817
1682026714.2820392,1.2851220534503214,-0.21625074086289725,9.68983219384863,-0.00032207220606936845,-0.0001075770136943975,-1.188555156064427e-05
1682026714.2920156,1.1593569213693098,-0.1641243864794918,9.764465309273215,-0.0004498330297555948,-0.0019888094995689385,-0.0022764759034029
1682026714.302048,1.4456738108324323,0.002989497336190915,9.661207701027964,-0.002164619262475104,0.0012391340557351813,-0.0009368489392213
1682026714.3120573,1.2248589929992488,-0.0978934276813109,9.764946606849913,-0.0017712078496202638,-0.00041936763365294817,0.0003032970579229
1682026714.3232305,1.2876016001078538,-0.21562706580747337,9.685990360922437,0.0008528908508361283,-0.00014297206990174674,0.0003055019641183
1682026714.3320343,1.3575485162568381,-0.0858996337402504,9.685612280595823,0.0010965290686871536,0.0009820771897937025,0.0015475319540715
1682026714.34196,1.253731744814008,-0.12035965313094898,9.737388301976798,0.00021847878087584923,0.0011374134116580675,-0.0001739439450315
1682026714.351999,1.1140445606592189,-0.17428420806021436,9.78717302994783,0.0006625323212733612,-0.0019277286343924816,-0.0017977793596796
1682026714.3619845,1.532442166512252,-0.19220357733965554,9.565760476202023,0.0020241328463876155,0.003448598548845503,-0.0019601936347894
1682026714.3719923,1.224113701866663,0.07551478353483504,9.808687624954828,0.00010896198356657297,0.001099053108350077,0.0013113345356546
1682026714.382208,1.177042462017316,-0.3056475023604498,9.714324729120767,0.003119727336589049,-0.0007195805732995151,-0.0005233573157451
1682026714.391973,1.3114999416068511,-0.03547048554153509,9.729631760280183,0.00184194630106922,-0.00012653509437194108,-0.000126970246259
1682026714.401989,1.3284170349645879,0.051848647463418364,9.751311786441251,-0.00012051195295714477,-0.00012471188288652743,0.0028525097167007
1682026714.412294,1.2225068998048858,-0.0013135817509606748,9.800977996872255,-0.0031756524469615174,-0.0009576981603441923,0.0009317496313601
1682026714.4220288,1.322389340008536,-0.2527851452328668,9.637130693171136,-0.0008204948943609364,0.0002452141055423862,0.0004638428671174
1682026714.4319987,1.2662059794455698,-0.233452866075379,9.679846803382118,0.0013364391052833671,0.00030109941646812934,-0.0007390446391068
1682026714.4370854,1.3145907123562919,0.1013862749114562,9.786374133724363,-0.002278965378729215,0.0013996781645186597,-0.0029630534246675
1682026714.450977,1.2959342328785954,-0.13411959725607997,9.707800172162024,0.000561205010310816,0.00048400934580069145,0.0007231273792572
1682026714.4610553,1.168915916795181,-0.17902368488499282,9.766401713806474,-0.0005195128281347725,-0.0005888695609459116,-0.0035382331244759
1682026714.4710329,1.2996164207051792,-0.06592901989464643,9.723788785435287,-0.0001983864258554123,-0.0008429404920835625,-0.0015973578102998
1682026714.4810302,1.382691806475761,0.08431212243453509,9.735495015058088,-0.004042870634846811,0.0009511634330624963,-0.0009227254323772
1682026714.490962,1.291805031568956,-0.22692704171901704,9.6822803333199,-0.0015432268888453508,0.0009168836583377071,-0.0010896023724339
1682026714.5009706,1.1927333281015575,-0.08694218095832265,9.78808559919474,-0.0011531897725877477,-0.001734764251848218,0.0009924634231142
1682026714.51099,1.3093898722736912,-0.14751154699453742,9.697696920703025,-0.0025129119751390173,0.0001695901796235283,-0.0028479405574612
1682026714.5211034,1.434941257559187,-0.07456177930631826,9.653806597634121,-0.0007527294262940732,0.0016463057455075737,0.0019163421401176
1682026714.5310495,1.1593916546257048,-0.1512221918480458,9.761506690333213,-0.0005016319754088147,-0.0004838148136812934,0.0006210519803576
1682026714.5410194,1.2369312008355349,-0.1154503413759512,9.73970428090769,-0.0013483712335780797,-0.0008306524139929676,-0.0010337248806021
1682026714.5510428,1.3557538028483063,-0.04123053417683237,9.710990399379023,-0.002425368440854738,0.00024709018714443016,3.358406125384176e-05
1682026714.561076,1.2667341671412384,-0.18485697012332167,9.707434565761359,-0.001430313930921009,0.00017444989962136581,-0.0011838480260334
1682026714.5710597,1.2903239448354078,0.0021478235305635914,9.759445524641652,-0.00304712436972476,-0.00015822572476708365,0.0001360374607034
1682026714.5810404,1.2758558042126675,-0.28873682615281765,9.668711001497,0.0021261972712594748,-0.0011461662600068577,0.0027280677912645
1682026714.5910585,1.2812161114644744,-0.14056817717707265,9.716342063503653,0.001977187560654901,-0.0008097791696849206,0.0012491401156299
1682026714.6010146,1.3277546861524352,0.07886631728823688,9.764335945040136,-0.0021280877650792737,0.00022250638834191063,0.0012163801455758
1682026714.6110315,1.1620953433331924,-0.20047306481950497,9.760559765509363,-0.0012068263735627984,-0.0016900549443107974,-0.0004771578952781
1682026714.6210127,1.3544793180143042,-0.12220131649783357,9.679028721477348,-0.0010865021665511366,-0.000239817883794004,-0.0002048469742871
1682026714.631099,1.32553921543821,-0.05084110570949797,9.713830761302932,-0.00017305422778411366,-0.0004886613593563531,0.003546523266647
1682026714.6493568,1.2440495038318933,-0.1493504224070294,9.729509103676866,-0.0010652568390469247,-0.0006883382391563989,-0.0005691783864162
1682026714.655282,1.403052796993857,-0.18978296052720212,9.635991958786517,0.000487047529601048,0.0005238793012671978,0.0001147731544338
1682026714.661051,1.1421002818577815,-0.029033006098907032,9.838230711069544,-0.0012980950362394155,-0.0007647000903823314,-0.0012076896511129
1682026714.6710105,1.3271176353203074,-0.11080649537611426,9.700807214465415,-0.0012220937599131067,5.820579518674644e-05,-0.0009160073369852
1682026714.681303,1.336590012480738,-0.1172525325086125,9.69327295657856,0.0009266462877446231,-0.0002912050168670941,0.0034541265211887
1682026714.6910229,1.266120466545012,-0.17912036636306677,9.707317605798277,4.452067301819002e-05,0.0006885371223282278,-0.0005032330647222
1682026714.701238,1.167159765013408,-0.05575969111587029,9.79507183727242,-0.0016162259497660098,-0.0013793804112853408,-0.0011402653891704
1682026714.7109852,1.4331086839365235,-0.16638554154804494,9.624506752435437,-6.800811992628413e-05,0.0015427517099293787,-0.0002126499440632
1682026714.735087,1.2944563280096155,-0.1173813695149861,9.719083495313496,0.00034177057721086697,0.0018627638486867738,0.0003215760096796
1682026714.7410457,1.0191800609580874,-0.021366305032909615,9.905259875979489,-0.0005157828911766454,-0.0017806002202863846,0.0010677188273407
1682026714.751041,1.2745627863875846,-0.005710553710188758,9.764717969765654,-0.002809440127948349,-0.001960897820683053,0.0011005053982958
1682026714.7610333,1.3612908363360403,-0.23038269309201168,9.63827252430762,-0.0009754861644104087,6.938697709044302e-05,-1.9696670409266115e-05
1682026714.7710907,1.316736238016467,-0.21827009663397748,9.672017977646105,0.0021638202597971936,0.0003011037074741162,0.0017226247781368
1682026714.781009,1.1721040406791168,-0.10743554989362236,9.772078223917953,0.0008435805383292412,-0.0010653369176653444,-0.0002853098686896
1682026714.7910242,1.4674976652551162,0.039932532634783385,9.685437250794257,-0.0015316639196931692,0.002116809007385609,0.0016105007251613
1682026714.8010268,1.1586596861175014,-0.1631934211419271,9.779908721659895,-0.001310394548247333,-2.97022097762324e-05,0.0002973291428648
1682026714.8109903,1.226386697480039,-0.2930535424528402,9.695429944858112,0.0013312231162235936,-0.0005322343001337,-0.0019873908151052
1682026714.8210242,1.241594152870732,-0.011050324823376019,9.77528417860469,0.00041107487682529243,-0.0021031914424179073,0.0004873134765662
1682026714.8309906,1.553390900153053,-0.012589304296226112,9.615813360985165,-0.0010727444120124884,0.0031673430206622293,0.0015695174387078
1682026714.8411334,0.9911326678192282,-0.15539936897847914,9.875077442807314,-0.0016788134124774044,-0.0023352844218123585,-0.001227434853848
1682026714.8510723,1.3789118124781814,-0.13639170927625102,9.660535165378883,-0.001201216661683915,-0.00029422034865770897,-0.0014382937353215
1682026714.8610156,1.2418882001237814,-0.03307809589354556,9.789498296581819,-0.0011360362164020532,-0.0022853725025117552,0.0012193371529579
1682026714.8715112,1.2710290983735586,-0.1753881111619042,9.694545356097809,-0.0011412554528119473,-0.0016591428643884627,-0.0010665009159706
1682026714.8810165,1.4060061358547629,-0.1804984835942241,9.632591706714525,0.001246276101878678,0.00022660058899304147,0.0007797478336729
1682026714.8933744,1.2600076492054755,-0.13200536420819514,9.729528806218367,0.0009717078195330143,0.0002523255510494405,-0.0006764611590765
1682026714.9010231,1.350319428433131,-0.14027453965999456,9.678905952111496,0.0018568223293223185,0.0010092959453901348,4.473723116147125e-05
1682026714.9110253,1.1649965166921257,0.006316403379439425,9.831842236489637,-0.0010771790009981585,-0.0012985227191006747,-0.0009644300572685
1682026714.9210503,1.4216154099963765,-0.06554306080201777,9.678877106790416,-0.0008443562289731215,0.0007246612319443803,0.0014003722334169
1682026714.989774,1.264946706238179,-0.11844707974731816,9.727612698853656,-0.0009244597986917182,0.00010441322320228145,-0.0006291488081328
1682026714.9906588,1.4098290280946304,-2.148647334086517,8.974496192313964,0.0016690954205457749,0.001091226688096914,-0.0028788725741319
1682026714.9952648,1.314953052018231,0.07290804196838296,9.767543922888457,0.002073671896009737,6.194192657112024e-05,0.0011869373719096
1682026714.9959812,0.44451772018067953,-0.4276088700066545,10.080437954687152,0.001859104647454164,-0.0007878076044327564,-7.7431801531438e-05
1682026714.9967043,2.5278472531751848,0.9453269448271506,9.414892828107185,6.128131656516695e-05,0.0012223673084546798,-0.000415314583864
1682026714.9974413,1.7166920350332413,0.042326891644630056,9.549303585317334,0.0003555579887638794,0.0015572719200078328,0.0005390914028398
1682026714.998176,-0.7029400595289516,0.17445338500697152,10.890484454262253,-0.0008883230699765482,-0.0010284878567885529,-0.0008962614357582
1682026715.0333416,1.288795013284266,-0.08793629064396956,9.729451126782056,-0.0021068531706276523,-0.001215468183376149,0.0007331888062767
1682026715.0343528,2.4893315042031734,-2.2017034151907384,8.347506910859424,0.0013989883207076571,0.0019827021424378096,-0.001035591716703
1682026715.0351906,-1.2516348866286493,1.0323137785731196,11.486967925660862,0.00042560018698498613,-0.003176457419614772,0.0008933777443021
1682026715.0360274,3.094483996351384,-0.2782702775841548,8.69501128108658,0.00020205584866348552,0.00034394329830954865,-5.063346010816491e-05
1682026715.0452974,1.3088593866645444,-0.05539693362827344,9.720699858175221,-0.0013059231570767711,0.00109086139857998,-0.0007178146753571
1682026715.0532956,1.0944411089686397,-0.24666849729605436,9.783314934668246,0.00047142108039236006,-0.001749658599061893,-0.0017120918620489
1682026715.0610106,1.3912925596840278,-0.021581297980461888,9.680636949088205,-0.000272886400374976,-0.00025470978465076357,-0.0003959465667716
1682026715.0710485,1.3507232146124786,-0.10822523397356512,9.68102647660882,0.0006651379733986631,0.000687795108116159,0.0016697439003624
1682026715.0810187,1.2575726256746091,-0.16403533041359308,9.722799873428064,-0.0003261784517134566,0.001378834293597444,-0.0018294359453133
1682026715.091048,1.136247554979217,-0.09203764516303994,9.812764947045682,-2.9257546071421335e-05,-0.0022913357926111926,-0.0004775360122434
1682026715.1055512,1.3449255831088223,-0.14381010588709317,9.68472090971131,0.0006211752815925048,-0.0005560715229615707,-0.0005490527384094
1682026715.1110103,1.4506621256772827,0.07568441691691911,9.692004670598001,0.00019872123678347806,0.00026049818375886285,0.0026375545875057
1682026715.1210475,1.251915462146295,-0.14060232371223685,9.736179063503558,0.000492288646782963,-0.0001716400669614758,0.0019215367518486
1682026715.1310284,1.2546316431776436,-0.12872002384813191,9.722926043358504,0.0003246422162749615,-0.00017722739953615236,0.0006583015072979
1682026715.1412573,1.113234163437887,-0.06452323074885678,9.849364798809304,-0.001250776088662093,-0.003744175620420645,-0.0005114550132415
1682026715.151029,1.372043702790253,-0.24497680661880017,9.628405641390263,0.000194227605642573,-0.0010996052579308796,-0.0030554480746499
1682026715.1610472,1.4079986931753727,-0.005126738235452067,9.702729201868392,0.0009095205716345287,-0.0004324154507044167,0.0019513498572055
1682026715.1710353,1.2260704506620883,-0.052720863349450336,9.777930600327974,-0.0006957093129306606,-0.0015198214128642829,0.0018463017785111
1682026715.1810474,1.2685524351920292,-0.11557843486888354,9.71858287213831,-0.002053950847962171,-0.0008421910447048714,-0.0003415594238899
1682026715.191047,1.2734495792273555,-0.1666946341712101,9.71075699826835,-0.0007810108260747083,-0.0012601714665528934,-0.0003840284317843
1682026715.20109,1.3295788221619085,-0.21785552274310513,9.658563892058122,-0.00025390278896139776,0.0007332465661051323,-0.0032472842268757
1682026715.2110603,1.2812042288937868,-0.08875795046515127,9.725448028162145,0.0003976634639095127,-7.812330795741091e-05,-0.0008250953525416
1682026715.221103,1.3899440240473184,-0.002556703899320156,9.717763915753657,-0.0008283385789970991,0.0012372656433009574,0.0013370548129901
1682026715.2310846,1.2660861258058207,-0.14889052831696287,9.723041214793673,-0.00034741573601247027,0.001044671506517627,0.0010613787324987
1682026715.2410984,1.3153841128616257,-0.09294602394429113,9.71227894123318,0.0002877580988288024,0.0008386618445350067,0.0032134848751016
1682026715.2624557,1.2695765175354108,-0.058919841376601036,9.745115334725567,-0.003589139303902153,0.0011944212041261817,0.0004742527251951
1682026715.2720833,1.122014605502474,-0.40897438962422183,9.706292467555523,0.0017696989830214896,-0.001629706132354979,-0.0007800163131318
1682026715.282385,1.5407869892176134,0.0054215493488553946,9.61075571566107,0.00042595504580403716,0.0033070425898209053,0.0016727033379143
1682026715.2895248,0.9489975424160871,-0.2533632114368951,9.851692495184182,0.0016374336233610292,-0.0010686736025349124,-4.726614692432082e-05
1682026715.3007653,1.444423455939199,-0.06401864102401111,9.66036708963162,0.0006282575526212113,0.0024602753285796917,0.0001322891201712
1682026715.3051984,1.1031195333864119,-0.09101759958644888,9.834614980505465,0.00020320924168850036,0.000845359226472346,-0.0003367230657599
1682026715.311194,1.429129642503241,0.04508217333676529,9.70007225386131,-0.0007192189979846284,0.0020296351793452536,0.0016242515938361
1682026715.3210912,1.2121649485323998,-0.18214793001942303,9.743667150889157,0.0003045372554220235,0.000801036224214773,0.0009552117424905
1682026715.3310535,1.2260761997164173,-0.03408289135581064,9.771787371124331,-0.00240265220169114,0.00024671329461190927,-0.0009726180125139
1682026715.3410618,1.2658410977586303,-0.28531302178597273,9.677245702050774,0.0007709288777694893,-5.577115774987744e-05,-0.0015601032775006
1682026715.3510451,1.3416667474549795,-0.1083633916952727,9.683428372396671,0.0007362917221539913,0.0011244077018134578,-0.0013887164078764
1682026715.3610942,1.2277131790335458,-0.08065419145867092,9.760427761786184,0.001280927232371565,-0.0006045100712475986,0.0007294629339017
1682026715.3710694,1.2072106505336546,-0.003003346873888698,9.796718566897859,-0.001257490587623549,-0.0019407798414900214,-1.6340416680995585e-05
1682026715.3815815,1.3381861999595117,-0.13230945249125414,9.675145951274525,-0.0006759871230090707,-0.0006674732522163801,0.0004750172246136
1682026715.3916943,1.2922554808017892,-0.16820965609803204,9.697702556207835,-0.0007087547803067208,5.784044911406713e-05,-0.0015683007788024
1682026715.4019728,1.4235969234387698,-0.11041949300316438,9.6517677439159,-0.0006699988530158677,0.0029695297775508374,-0.0012300327781699
1682026715.4111748,1.1040394952248709,-0.11668181833525558,9.820185482045778,-0.0002859259072102079,-0.0007587499785391405,-0.0006317637290917
1682026715.4212365,1.3505682098025766,-0.07887496424271256,9.688676808026852,-0.001536878241409796,0.0010938491670312363,-0.0016714806098602
1682026715.435623,1.3263343330867214,-0.10784518830976485,9.697325611034485,-0.0001462606068807326,0.0013341280278148435,0.0014823205873258
1682026715.441054,1.2489857362439032,-0.011398553900996205,9.77730864258598,-0.0014802698408357253,0.0008982601678752215,0.0014592592650447
1682026715.451199,1.2616740709346883,-0.137268838975594,9.719460074007346,-0.0005169177406125097,0.00023888284892680057,0.0027210081333183
1682026715.4610834,1.2456339928423874,-0.27812000804711307,9.69533017382559,0.0006893363733962182,0.0007898734816118455,-0.0015384931013099
1682026715.4710674,1.401334374590005,-0.01367163582850746,9.709699381823883,-0.0002777325656568667,0.002475936373174816,-0.0001087067777402
1682026715.4812434,1.1509212947428515,-0.13252004143387203,9.79598311825805,-3.112649688680412e-05,-0.0005292504652620179,-0.0006734776672087
1682026715.49112,1.385502180748569,-0.1798965280361583,9.640351965269305,0.002257323905119158,0.0009943765220197759,0.001405990640575
1682026715.501068,1.278711055128566,0.007654922467204818,9.753865095771681,-0.0005075875047531491,0.0010454156738858588,0.0013139537348766
1682026715.511065,1.193324973537082,-0.09074155997556406,9.782313622441402,-0.0012653093396829374,-0.0004242169684203428,0.0005785798292495
1682026715.521135,1.3738484534103856,-0.15603954059769212,9.659610461206292,0.00017152858585747666,0.00118585952324998,0.0018138907633843
1682026715.5311174,1.1352011055249438,-0.22422699372080335,9.766931408210796,0.0021213545631783132,-0.0018241615401839058,0.0014383910619076
1682026715.54415,1.303902814979898,0.03148167222333084,9.766605913720387,-0.0022346266356116046,-0.0011405893143203482,0.0007670819630734
1682026715.551111,1.3029261058627888,-0.32363693198246263,9.646508514588797,0.0003808955905740101,-0.0005635459078113327,-0.0003698765196017
1682026715.56108,1.3201865194113227,-0.11266045437096812,9.713406248587205,8.137955010864788e-05,0.000410249187276088,-0.001148090594273
1682026715.5710676,1.2676349768039752,-0.11041684887273677,9.74368387057539,0.0012023232757830073,-0.0008306308607501517,0.0007406419480107
1682026715.5811398,1.269202539324189,0.07396228137459224,9.791841510000866,-0.004224704063002054,-0.00013444403517805486,-0.0017303550977371
1682026715.5910735,1.2874789621939673,-0.2651389430415982,9.652789892137873,-0.0009825703160062677,2.283503223033571e-05,-0.0013484979409835
1682026715.6010764,1.385890980224297,-0.19185329447480862,9.639486442194453,0.0015144931811287602,0.001579262357179908,0.0007674780079983
1682026715.6110668,1.2833610269316627,-0.08070337820155288,9.736265623447794,0.00010631111966563643,0.0018776525107051128,-0.0002800870116911
1682026715.621103,1.0589785798483684,-0.07056916182004266,9.856159475429651,-0.00042973146036954954,-0.0030270675156880747,0.0002261636417247
1682026715.6311414,1.4310071519499512,-0.08969574171091636,9.650342906719185,-0.000523986730413143,-0.00034635387287905916,0.0011370011942349
1682026715.6450582,1.3018373051791867,-0.14770499531425274,9.693823293689485,-0.00038469939865342766,0.0009228611669105514,-0.0005270844686887
1682026715.6531572,1.1818477469784465,-0.011083316150915604,9.825952449506767,-0.0015029787689370443,-0.0012642652062988722,0.0005413370543979
1682026715.6634357,1.2526163584590133,-0.09594211422619833,9.749316681286153,-0.0017101036618454417,-0.0021292914200240196,0.0009548361284546
1682026715.6711493,1.4846056064735085,-0.21109310475291201,9.578571408961109,-0.0017313616773247398,0.0020806689706228503,-0.0016517430905364
1682026715.6811612,1.2112870916420921,-0.04782113008259285,9.782360299005699,-0.002061060039475603,-0.00011875575292030236,0.0004105690039582
1682026715.6911151,1.214944371606357,-0.19629215084298374,9.730169742289561,-0.00033993226303946796,-0.00158948351377468,0.0002794456539564
1682026715.7010946,1.3833921610356905,-0.18769746710063714,9.634981277118207,0.001203073540193334,0.0006292950423904826,0.0001185049639903
1682026715.7111173,1.076861480021237,-0.07357722637650209,9.852785150134837,-0.0001819872590660031,-0.0034431713072372557,-0.0009964752372465
1682026715.7296631,1.402496751517029,-0.09006247535199455,9.683568957876512,-0.000842508138210497,0.0009120438045230148,-0.0006548635557405
1682026715.7323902,1.1474901546185765,-0.040221665227294895,9.827132210514325,-0.00039174519318003147,-0.0003970323711847441,0.0009440288284681
1682026715.7411506,1.140102679977608,-0.16441737232055254,9.783605910772575,-0.0009900064110269897,-0.0021571911040577027,-0.001812307060521
1682026715.751175,1.4028258124053965,-0.07530661892705004,9.665375235985412,-0.0013137189431061075,0.0003469027444974426,-0.0014990178298316
1682026715.7611473,1.2397193713939436,0.026732268639386637,9.798607099618017,-0.002666764974604381,-0.0015325041262653136,0.0012416867410652
1682026715.7713313,1.266699134587447,-0.4033203128997286,9.636588588264335,0.0020908186505829503,-0.0008812929167684719,-0.0014043689135573
1682026715.7812843,1.3972015809486928,0.006049375576993541,9.702304565277391,-0.000629402516872103,0.001757721822182794,-0.0019307331077865
1682026715.7912972,1.1805272108946467,-0.11413349157715888,9.776275971104603,0.0015148781855326492,-0.0016304474137184492,0.0018708801961625
1682026715.8011038,1.3219676992025424,0.07387163897245587,9.770613693660595,-0.002530045537144391,-0.0007878060965054878,0.0015613167359847
1682026715.811109,1.1328876579926135,-0.363890573467726,9.727716152400545,0.0015927278077756605,-0.003348566110370735,-0.0002786076057813
1682026715.8211884,1.401580960856142,0.03602700169257515,9.708306793926285,-0.002392965704043352,-0.0002964617120482118,-0.0017042834207527
1682026715.831118,1.3909793388066551,0.025597065546640905,9.707673877765137,-0.0036286314623560955,0.0009776119979267297,0.0012834055395219
1682026715.8411193,1.2302539192624347,-0.4493643965407425,9.639156859912964,0.0024942395602118783,0.00029327332557207167,-0.000272297429677
1682026715.851253,1.2596583413670854,0.048462025665743494,9.79643325739204,-0.0011621051779564478,-2.9328588755294464e-05,-0.0006459163397662
1682026715.8611164,1.2242137347296878,-0.18849991370284525,9.73413855840312,0.0003995047860966865,-0.0013432345077781062,-0.0005334249127767
1682026715.8711004,1.3366435503801728,0.006247357545498062,9.735804435638745,-0.0010145968572114893,-0.0010102034193445212,0.0013493418972362
1682026715.8811052,1.2971830012424819,-0.28987146685484283,9.64110907411613,0.0009918198777252318,0.0005916939626742876,-0.0018473189685605
1682026715.8911436,1.1941938675446535,-0.08831530949700377,9.778544369225957,0.002045732843302696,-0.002191472060997823,0.0010595269139744
1682026715.9011135,1.4828256105522633,-0.09259873559591496,9.627688032029086,0.0016363076020908004,0.00210973051475098,0.0013064906105287
1682026715.9111154,1.1727962931078555,-0.15129463889098654,9.765737347964759,0.0016020418142291936,0.00013012163659296492,-2.006756962460673e-05
1682026715.9211197,1.190463412120866,0.0562798175812579,9.824901672350938,-0.0006420673467534567,-0.0025938177487502905,0.0029098719695471
1682026715.9311004,1.2790422225834954,-0.22061632572833312,9.687436340008341,0.00015962442198886722,-0.0016662301823279295,-5.8436895545546175e-05
1682026715.9416254,1.3371969613979102,-0.2303481881646063,9.650965145472515,0.0035179595753354344,-0.0009338128125472653,0.0013269913195986
1682026715.9511113,1.3800398454974068,-0.1101356114929255,9.67971418448036,0.002102346826876834,0.0019141451631934214,-0.0010825394548587
1682026715.9611306,1.2534552697093844,-0.08443726846591337,9.756239839856065,0.0018423301012916258,0.0008904442452511878,1.3092170644577385e-05
1682026715.9719136,1.1385640775971044,0.03378660252241864,9.850711848566522,-0.0010700987577931507,-0.002497339541086534,0.0006720850814022
1682026715.981141,1.4417749068544436,-0.14817873361289222,9.622781567661542,-0.0006294056330159337,0.0007604257533536137,0.0002023166615404
1682026715.9911144,1.253970634158556,-0.0907604912002182,9.744019312219251,-3.597266844366836e-05,-0.0005162341974035234,0.0022046867978647
1682026716.001124,1.2658140267031817,-0.17207478832244785,9.706683213109669,-0.0011546684099432217,0.0005968927301523942,-0.0022582210496179
1682026716.011116,1.3177297356262125,0.08135508182082339,9.773858354296367,-0.003260578686981602,-4.3125647589421525e-05,0.0015956068981327
1682026716.021145,1.2720789600068163,-0.176549940061282,9.706964355369013,-0.0021303133394421875,-0.00023646172235996672,0.0015750848268512
1682026716.0312195,1.2445637732240873,-0.1380923159080614,9.752786637636362,-0.0016948314072172622,-0.0011715167553823483,0.0011355079349018
1682026716.0411615,1.3840665639351357,-0.15703850989863424,9.668867610265679,0.00013501680154017292,0.00025751312586181317,0.002795508351352
1682026716.0512476,1.3799752163099217,-0.21087934972915967,9.636219649897352,0.001351313505116401,0.002840273155863125,0.0011940167040452
1682026716.0611253,1.0908191751147227,0.04542320843900834,9.874899504298796,-0.002344887344019501,-0.0009092455287043239,0.000328616575513
1682026716.07113,1.3495100679298055,-0.20953073540121814,9.651939755709746,-0.0003436820688060635,0.000498167937179224,0.0005372327158116
1682026716.08114,1.1589415838435289,-0.0941799735689953,9.788548994802152,-0.0014448732589986703,-0.0015507334732206926,-0.001095182857301
1682026716.091208,1.3632938335758682,-0.19300184259874337,9.666493786204244,0.0009329884951230659,-0.0003415051502159544,0.0001278305297605
1682026716.1011338,1.1250447974433269,-0.04669728186377409,9.8281806631725,-0.0014344526970692907,-0.00295220564202233,-0.0018473185028992
1682026716.1111405,1.4262413033904697,-0.23349763897500445,9.606302295289204,0.001187055543063863,-4.742889657043949e-06,-0.0020857391774765
1682026716.1211712,1.3169597136275248,-0.07109670076182088,9.719486368170173,0.0007340684162489764,0.00042476814270705246,-0.0009383472044132
1682026716.1311336,1.3109519857411651,-0.11001184180047044,9.708606341850269,0.0016117309785010966,0.00033686991876456026,0.0006884867196791
1682026716.1411295,1.3652884911216256,0.03517686989647801,9.747056803266021,-0.0006700120369336497,0.0014559401382939234,0.0020422623946219
1682026716.1511245,1.1301052841075279,-0.23317729183602806,9.772704829859602,-0.00021179063409027286,-0.0006335888753501956,-0.0014788998652361
1682026716.161132,1.345752565524628,-0.14537603487666284,9.68546269704153,0.0012105398014194797,0.000247812297123034,-0.0001802611060552
1682026716.17112,1.1337104667215199,-0.0397564506123738,9.83768774765366,-0.00018534803461313498,-0.002989453018504578,-0.000188453950744
1682026716.1811385,1.5273179268291548,-0.05104488353175936,9.602755153990675,-0.0013260306343473342,0.0020084017427212143,0.0005197238514088
1682026716.1911516,1.1596912213814252,-0.16544886820222116,9.773778012927773,0.00018308651553957495,-0.0009576712032538629,0.0011846988798938
1682026716.2012963,1.3582498244892414,-0.017093550000931875,9.707884280697716,-0.0011155648002679115,0.00026459624080146376,0.0027828446926437
1682026716.2111638,1.202629562950597,-0.36243043246858564,9.682145034338818,0.0029118445662570254,-0.0004826800195527786,0.0003956570161395
1682026716.2211492,1.271479796504946,-0.017706972467949465,9.751781714379955,-0.0001309668838200993,-5.134767330603309e-05,-0.0015116994164995
1682026716.231127,1.2910247218002335,-0.010534191476918425,9.769750763059179,-0.0011583929775727411,-0.0006570545461128955,5.740752554314935e-05
1682026716.2411227,1.2952677047858125,-0.2580204646793262,9.662992901766156,0.0023515748089790217,-0.000633206400986318,0.0008225727232061
1682026716.251135,1.275804387889658,-0.02191992802726164,9.751880340721678,-0.0004092304397313072,-0.0002819063954453105,-0.0005583713192604
1682026716.261129,1.3597166465634378,-0.21144754208851507,9.643750986078334,0.001657931191828328,0.0015296921624488743,-0.0006455554522685
1682026716.2711318,1.204770986060069,-0.07184862468196854,9.789331906559482,0.0014779895752993222,-0.0008079081867305929,0.000544307274919
1682026716.281211,1.2021265204550624,-0.15094234821682553,9.752459193629024,0.00024939770486273496,-0.0011234593094663515,-0.0036160949513427
1682026716.2911792,1.4021658559126042,0.013213205617600364,9.696209583495182,0.0003738121180107856,-0.0002316187193081945,0.0013288384233024
1682026716.3011267,1.1081654646311032,-0.14040609419881386,9.804258807711818,-7.655083070725648e-06,-0.00337688570661254,-0.0005200008291862
1682026716.31125,1.4662302576539863,-0.20695482019124242,9.58917924715287,0.0016132323102491326,0.0008483378452291796,-0.0007554429013393
1682026716.321454,1.386951946191217,0.07472710324168445,9.74385332889512,-0.00037420624379420897,0.0015583789558686176,0.002858469715517
1682026716.331123,1.1906781273046951,-0.20720704944270443,9.738498761512922,1.4313152375601755e-05,0.0006721515856227015,-0.0002510325413308
1682026716.341122,1.2780693535712002,-0.11685200726328718,9.716101263252934,0.00044236448419175195,0.0004553282532693833,0.0003230272430815
1682026716.3511264,1.3038406069994208,-0.1411093268835842,9.705363641501076,-2.441598758380819e-05,0.0014082634907253428,-0.0015727639094106
1682026716.361129,1.2582786563912751,-0.043302872954948196,9.759155939933377,-0.0017377060405555445,0.0008595309011409131,-0.0020332039695344
1682026716.3711312,1.143014520811561,-0.1251674880535087,9.798375498530698,-0.000956841123849066,-0.0025938059529683724,-0.0013470155082754
1682026716.381149,1.3391131699160619,-0.07913442672683267,9.71262915295078,-0.0007445208638950595,-0.0021162409411815165,2.314346953111493e-05
1682026716.3911445,1.4085216315870341,-0.08306864664210739,9.662837387686789,-0.0010525896536289503,0.000277623748085416,0.0003330823836736
1682026716.4011445,1.2776647038941111,-0.18990136737005087,9.698984351770468,0.00024193774407962193,0.0005249971692584767,-0.0005736417498551
1682026716.4111545,1.3121230326848365,-0.028886745797941777,9.744785047558858,-0.0017928340477538272,0.0012752521974056595,-0.0012076978001855
1682026716.4211829,1.2016534731834743,-0.21506278915131727,9.737529747939345,4.414328385101871e-05,-0.00037540799980865424,-0.001568295190867
1682026716.431162,1.2714589109572274,0.020451522513332415,9.769109854968791,-0.0029923377306034834,-0.0005814290346716072,-0.0020000700734667
1682026716.4411445,1.3349308199093008,-0.11661868791474667,9.69714109573689,-0.0017648690501646804,-0.00041378352309025495,3.209999873119199e-05
1682026716.4511795,1.413948754369743,0.030660621304716307,9.70000022845776,-0.003678180744158047,0.001464129424319274,0.0021387219766043
1682026716.4611497,1.065436139109431,-0.3651117527164881,9.779271735588315,0.0005328904600864522,-0.002712667456730065,-0.0002815824829153
1682026716.471185,1.271494764413828,-0.03825276040573299,9.743709191705351,-0.0011524269362138619,-0.0026325623549701242,-0.0005319268804155
1682026716.481156,1.333563970079888,-0.16464493410228276,9.660175093296203,-0.0009877666781261563,-0.0008596987097068021,-0.0017210374482087
1682026716.491151,1.2307072652319695,-0.13467357822910664,9.744533655072708,0.000418156120611365,-0.002604238646853255,9.168566780912484e-05
1682026716.5012026,1.3603716430119583,-0.32503339721780283,9.609374970149133,0.004227642712618511,-0.0005710131726587583,-0.0009830527834705
1682026716.5111923,1.3420510530628573,0.05590293168652578,9.753766072100566,0.0016817655521292386,-3.19368945704119e-05,0.0008039571565464
1682026716.5211945,1.3378757877989644,-0.07744993976154924,9.705885416866296,0.0011382315861881375,0.000986567206587293,0.0008311579457372
1682026716.531209,1.286568047066409,-0.012292784578866282,9.771453318763063,-0.0013196954386149103,0.0012223685333523574,-0.0001705644082389
1682026716.5416646,1.2089582836145265,-0.16826328734391197,9.751042065385558,0.00017229172035627383,-0.0005810590510535951,0.0004742659965418
1682026716.5519166,1.2508408523670016,-0.12101318280820576,9.741302796271457,-0.0005921362563502341,-0.0007315282322397017,-0.0013488667447231
1682026716.5611603,1.2871900831932095,-0.09232977567306702,9.722115024347191,-0.000677443590834859,-0.0008335965233450333,-0.0006809221942089
1682026716.571144,1.3183194168902432,-0.1571337310541925,9.68881405376948,-0.00021365000682189327,0.00030481570402249574,-0.0015191295079998
1682026716.5812106,1.2082158930363114,-0.09293397274116309,9.766166176518892,0.00041554554955252644,-0.0018744622005512706,0.0001233551755436
1682026716.5911329,1.4798529674527265,0.046300852798538655,9.67752318231892,-0.0011859843960890146,0.0012011121488928402,0.0031401181930564
1682026716.6011353,1.13053637207162,-0.18976039364828431,9.77523512784443,-0.0022599625338953853,-0.00027593431107578485,-0.0019654050830863
1682026716.6112225,1.3022619642251185,-0.16497394701716597,9.69945550274988,0.0007690704810280998,-0.0012180663342107097,0.0015948473172616
1682026716.621217,1.3927400749256802,-0.1621815185573576,9.647547986236122,0.0011415920710836295,0.0014101208480784327,0.0004239731805287
1682026716.6311707,1.1841413064326063,-0.06950565156185107,9.791706063677472,0.0007046252721876849,-0.0009930655486595661,0.0015993268478783
1682026716.6411717,1.2849169161010752,-0.11426995891947254,9.736854270058236,6.201051303234875e-05,-0.0007408527606647438,0.0002436782104783
1682026716.65123,1.3711122271753684,-0.047640631218766556,9.702832447841557,-0.000645058288443176,0.0005316966127817817,0.0015065552450837
1682026716.6611626,1.1991243432023198,-0.22432321217467516,9.722614681108602,-0.0003384727320196867,0.00017517899569752975,-0.0016022102337442
1682026716.6712036,1.2622596884699644,-0.031591639958969346,9.768200391027651,-0.0009087969946725815,-0.0012292418844499571,0.0005402274999656
1682026716.6811728,1.4334891262982195,-0.17247978852159404,9.610116311539116,-6.761514424397811e-05,0.0023045516909298573,-0.0001463847130648
1682026716.6912117,1.1473847633724032,-0.04919069346878757,9.811548547015958,-0.0016668964221286389,-0.0002368361648850662,-0.0005080880493037
1682026716.701161,1.3251374336918051,-0.14254039589332856,9.685143037165208,-0.00015106638354080138,0.00027276743048664686,0.001035670853395
1682026716.711265,1.297747337719298,-0.13521766164013727,9.711850278331774,-0.0002375068425828955,0.0008162956703904407,-0.0002454681217781
1682026716.7212937,1.1542098545646695,-0.1635090502472034,9.771352773769987,0.0003473581378861315,-0.001505674358012092,-0.0015303102683387
1682026716.7312458,1.3914968022447929,-0.015049636247578796,9.702067843306741,-0.0004547015013391907,-0.00037205935623717295,0.0011496725363545
1682026716.7412157,1.2861820983100427,-0.23955896593760956,9.684051141400944,0.0018106658675635886,-2.825280250645195e-07,0.0007096994539611
1682026716.7511723,1.3571918790630977,-0.13941113091706686,9.681417724832496,0.0009966638591409297,0.0022814456080457765,-0.0018909414194635
1682026716.7612474,1.1639571097918882,-0.06858791025705846,9.808937503759596,0.0009132346594404485,-0.000817221048459506,-0.0003657775361202
1682026716.771205,1.283654283213305,0.009942466016541956,9.757945128628407,-0.001181864603454557,-0.0010362704179148975,0.0006389391945563
1682026716.7812035,1.407505304457304,-0.13002659992135154,9.649476725427212,-0.0005824830673537209,0.0014395502573998462,0.0009857390995025
1682026716.7912035,1.2494827823481127,-0.0730220786597734,9.751618274445855,-0.001315596935904537,0.0007235475166494463,0.0011466903250552
1682026716.8011675,1.2251533125320806,-0.12184660646697033,9.772869798053385,-0.0018919215757112649,-0.0001556389376801311,-2.5284605856958983e-05
1682026716.8112018,1.1339396182481654,-0.212531557802812,9.777137882518842,-0.0002237061903615426,-0.0030311765462573354,-0.0011842231162003
1682026716.821284,1.3615093236180393,-0.1760680306214979,9.653038599624825,0.0016288852936170856,-0.0014374798094893716,-0.0002491508040688
1682026716.8313055,1.3289675192156158,0.04264430444491315,9.748018957883197,-0.0014188049390314475,-0.0004830671835636057,0.0004307014040537
1682026716.8412166,1.2438497169836387,-0.16794532484772803,9.73315050185112,-0.0012574711383216725,-0.000825065750732883,-0.0018465813610814
1682026716.8625078,1.2623634772000323,-0.1940221218833214,9.696062304435728,0.002100121420043617,-0.0013279507750876105,-0.0017500898230932
1682026716.8649,1.510897656755891,0.641671907290634,9.84667846604207,-0.0007288537291935957,-0.0007907844595032008,0.0001341578189172
1682026716.8716304,1.195370488065602,-0.32214049204874734,9.690502060002201,0.001631489872128765,-0.0015760703223605765,-0.0009245580423734
1682026716.88125,1.317424765273156,0.03570584661509434,9.754313859270027,-0.001362910259665388,-0.000851134797126451,-0.0007789115317277
1682026716.891185,1.3817053114217095,-0.15694083155399408,9.665462488105902,5.754984495690187e-05,0.0007440451465028009,0.0006326094606779
1682026716.9012115,1.2764298279189752,-0.07592031849741712,9.738328218338145,0.0005060587461566319,3.661743427141838e-05,0.0025671255878992
1682026716.9113345,1.3716170699563301,-0.05002717534796658,9.700615604338774,-0.0005470755317162231,0.0018161734752424473,0.0028636884979792
1682026716.9211817,1.0759681077375736,-0.11799468114214712,9.830748582161382,-0.001592757542858153,-0.0018435481878111499,0.000590132652957
1682026716.9311996,1.4643237378017289,-0.2227344527630254,9.578416124414664,0.00023633885655517688,0.0022393669021950617,-0.000227956230577
1682026716.941226,1.118133143619248,-0.06844321262444591,9.822263790291393,-0.0007295919767440499,-0.0009334450355189092,-0.000188444521103
1682026716.9511786,1.2328240940826736,-0.13345298638841024,9.739039031404886,0.0003786638637620179,-0.002301388104517439,0.0009790533093624
1682026716.9611762,1.4328223663512192,0.04646237299527828,9.686380486523394,-0.0023899785096692223,0.0004579293719244327,0.0023086254239902
1682026716.9711754,1.2250797759911667,-0.23642755201733942,9.713317518178965,-0.0008756357651134166,-4.386833510986344e-05,0.0001196141691766
1682026716.9812057,1.4403588074468154,-0.043808660588669626,9.667034209282916,-0.0020938404081016046,0.003093575372230956,0.0005614630516506
1682026716.991186,1.0506240565225562,-0.09960158158834412,9.867558029844309,-0.004135287983699079,-0.0009360827308058819,-0.0023740766465775
1682026717.0012438,1.3789639830345553,-0.23194464166203022,9.640385095699104,-0.0003813009232335318,0.00010328427174822556,-2.343139034879601e-05
1682026717.0111992,1.2388127193361709,-0.1220344234145252,9.73753648116924,-0.00042488431063366554,-0.0006887139583437948,-0.000362430362787
1682026717.0212052,1.1145737239177247,-0.3241636265115251,9.73904400843489,0.003705711133640509,-0.003987462225068098,-0.0011138176906965
1682026717.031223,1.4388626995541787,0.09352236607430955,9.714918034638854,-2.664222537442078e-05,-0.001016172670897315,1.9419925462480425e-05
1682026717.0412629,1.2993812692973858,-0.11357712894917725,9.723805871636529,-0.0003134802679162383,-0.000686091524014355,-0.0006809249881766
1682026717.051205,1.2947736902784792,0.015740817943316613,9.760869469950272,-0.0034114367186864007,-0.00027893087020143943,-0.0012576232094429
1682026717.0612023,1.2779293239161098,-0.20062224990396585,9.69855147058005,-0.0010164631357436863,-0.0006417747749147619,-0.00011693070532
1682026717.0712175,1.4018514473756887,-0.14939862479906393,9.650015070313449,0.0003261286823543946,0.0016369916573180064,0.0008292917499207
1682026717.0811932,1.2063159568017403,-0.1368736301440118,9.757919132132509,0.0019082569852933652,-0.0006722991439476077,0.0026137104594968
1682026717.0912197,1.2259646064327396,-0.05353428149092301,9.780213466052572,-0.0017827514503111028,-0.0005169851712661728,-0.0020488669525943
1682026717.1012676,1.3216510628398277,-0.054091249294975205,9.722816940773717,-0.0022964752671612173,-0.00010086636944928476,-0.0010657623771689
1682026717.11124,1.2915831293463025,-0.12290780117836037,9.713604380863043,-6.390115361298606e-05,-0.0011584662863142279,0.0024568805691674
1682026717.1212552,1.383935327489685,-0.052238936963048245,9.700186006369835,-0.0029275648221366206,0.0017416629822453004,-0.0005233321700356
1682026717.1312044,1.2030771038097976,-0.324265576275198,9.693684618899118,0.0025851541346246466,-0.000682751210809678,0.0014916630333178
1682026717.141206,1.367454664221882,0.19742032627660713,9.77911866416172,-0.0024462416425496004,0.00017853245023947381,0.0039648652180917
1682026717.15123,1.243523908501365,-0.12297780866640214,9.742683707866327,-0.0025572293138425343,-0.0006182977766482833,0.0032272686820365
1682026717.1612122,1.1842872892585632,-0.27613428062828815,9.712537667805373,6.648422466699945e-05,-0.0020521676485924655,0.0019435321317874
1682026717.171204,1.289811232428058,-0.12228275290366972,9.720431284629608,0.0003537042008746189,-0.0019560522830621295,0.0020560367719158
1682026717.181248,1.385100777758275,-0.021289205847595468,9.683240034683314,-0.001501115318690316,0.00040652505279014295,0.0019386975780949
1682026717.191217,1.2651253815345236,-0.26280587759186325,9.683691750866469,0.0005205756060515799,0.0007000777051129797,-0.0004879805620871
1682026717.2014608,1.2993609873876404,-0.09362504796640123,9.718374261817528,0.00047329729817728085,0.0009884085294996597,-0.0003695028264187
1682026717.2113369,1.301745360575013,-0.09579255341197197,9.706599864281344,0.000846189793509618,0.0011575421223363749,0.0010233818191923
1682026717.2212284,1.2496877297425684,-0.14105627719992547,9.725037373785115,0.002242048121097191,0.00011632672228671992,0.0019103955727191
1682026717.2312193,1.2852820372006994,-0.08937782385186543,9.742480905285891,0.001467559331293196,0.00020611417502208835,0.0010014116286188
1682026717.2412236,1.2764187593603509,-0.03272079006923707,9.75709955779474,-0.00040923046165588454,-5.428976122471278e-05,0.0008233548013381
1682026717.2512023,1.366553744847938,-0.07294138510628781,9.688475787977366,-0.0016791793064005272,0.0018765336781160383,8.611112012344205e-05
1682026717.2658815,1.308185712513074,-0.14609091532116572,9.707298669477806,-0.0008007804396838488,0.0027348342790611273,-0.0002491701290122
1682026717.2711992,1.1693632983193611,-0.22669983700615412,9.73580157385091,0.0003428740251182546,0.0016194844671649153,-0.0002272032562754
1682026717.281272,1.1773986348875511,-0.12023373928477821,9.77106854896786,0.0006751910962114632,-0.0005698692728147049,0.0005394570633657
1682026717.291201,1.2422850139784138,-0.1369185206690466,9.742136201691007,0.0010615191722235363,-0.0014430746638065398,0.0002921230496727
1682026717.3012,1.3343605414740065,-0.04667212684720685,9.709234391950224,-0.00032766774299915365,-0.00031393541009038374,0.0004951380995922
1682026717.3112333,1.2514170786967653,-0.16127753828368724,9.731232002608058,-0.000266938921145462,-0.0006257507780724998,-0.0010106238898001
1682026717.3213222,1.2590803689773487,-0.2636708371301539,9.679369812832224,0.003466923888023805,-0.0014069224293673098,-0.0002696601569764
1682026717.3312762,1.3728430210447418,0.12054588455049059,9.746094123406976,-0.00036714373898847784,-0.00023832387973191758,0.0018247048954949
1682026717.3412273,1.2906126331705854,-0.13647006763918088,9.70925265286283,-0.00042078327820757486,0.00027204517260394557,0.0007361727638058
1682026717.3513925,1.1717863022912252,-0.281864838472763,9.720400652549358,0.00248383206443293,-0.0014743718846048765,-0.0004939156480245
1682026717.362062,1.3244555218406981,0.11435897685698324,9.773550588188426,-0.002403749374157142,-0.0007781228005590446,-4.0191354986254335e-05
1682026717.3712437,1.3018690209128616,-0.2245963724670456,9.674080167526437,-0.0009497578666064126,0.00015096857459295055,-0.0011894352629892
1682026717.3812535,1.3242371167337892,-0.1285309099218293,9.69841577193016,0.0001372627934955129,0.00043633125710008404,0.0003390527434535
1682026717.39122,1.160188942542356,-0.12786610374282334,9.78436184737147,-0.000704280330966217,-0.001301155276990879,-0.0018428567692748
1682026717.401231,1.3648210999264951,-0.1502973701381632,9.667581009417127,0.0007471099574113396,-1.3307335335135492e-05,-0.0006000866543613
1682026717.4112225,1.2812976713476112,-0.19147335064749677,9.681223107594205,0.001285787331289519,0.0008900911941430726,-0.0025625586405507
1682026717.42127,1.2037094850636219,0.03540657122611271,9.809172245903815,-0.00024495075074620914,-0.0018517456487020317,0.0005729979473985
1682026717.4312255,1.441767635300405,-0.08859348126184628,9.643348249385092,-2.0764538120200396e-06,0.0010733569253740223,0.0018541346451971
1682026717.4413264,1.17604757027814,-0.11819127106085475,9.786416064891991,-0.000718809453322477,-0.0006667507759466763,5.740380025285089e-05
1682026717.451238,1.2401193458516477,-0.1332134951354024,9.722987488906885,-0.0005671986674875863,-0.0011595856746101773,-0.0009789621818922
1682026717.461215,1.4709992941109837,-0.007858117996679289,9.655803271391132,-0.0015618544209296348,0.0020918429630146147,0.0013537989742476
1682026717.4712868,1.2070504483227364,-0.30783405503932565,9.695581204192495,0.0016970422898290674,0.0011009136811856754,-0.0002406147670112
1682026717.4812374,1.0890819833256373,-0.06115216771356723,9.852939660728545,-0.0001462437939292627,-0.0023695462154508817,-0.0017273771938048
1682026717.491223,1.371152056135107,0.04487981283612841,9.734308972186144,-0.00221711523043265,-0.001396141621190562,0.0007760266179107
1682026717.501703,1.223059205837108,-0.28403063206130386,9.696864981441738,0.0010652365360962128,-0.002316654472234957,-0.0001746685139946
1682026717.5121503,1.430269096011484,-0.009008672231760393,9.680611320901955,-0.0023288995697716207,0.0016381145390757395,-0.0025562279753498
1682026717.521261,1.3196321785922485,-0.0639414185685101,9.7143012991041,-0.0007810221209443311,0.0008137011932454364,0.0016265262473612
1682026717.53122,1.2523390271722914,-0.2224539777394025,9.705778440125483,-0.0005004850406495469,0.0013546136233530738,-0.0020220285643003
1682026717.5412557,1.320207384549208,-0.026586344601469285,9.74138300014401,-0.0015637027725084712,0.0015092010361702965,-0.0005297063745669
1682026717.5512133,1.2948084666653321,-0.14035810811085273,9.712745985315632,-0.00029936242353057456,0.00109682756085519,0.0008002455450482
1682026717.561314,1.1424584942426155,-0.16159556562825517,9.790325766362214,5.457103418443413e-07,-0.0015026785150954992,-0.0006980692397914
1682026717.5716214,1.3429394700789081,-0.08852876766302582,9.698305196774887,-0.001181476963544373,0.0002556623541005886,-0.0020793985005579
1682026717.5812182,1.322332969458016,-0.054953660912479885,9.720794886524603,-0.0007139734812668626,3.809430120806497e-05,0.0011608358926028
1682026717.591255,1.3191890644880322,-0.23301852481120816,9.660304156995489,0.0013275024866799376,0.0013087818037577574,0.0002593287370987
1682026717.6012783,1.2605469267147853,-0.003001546927594495,9.781312344832708,-0.0008514298513815506,0.0004977968547627892,0.0006262720433883
1682026717.6112227,1.200136071128367,-0.2812178476488312,9.71976978152653,0.0006051651218454873,-6.361938729391324e-05,-0.0028729004681221
1682026717.6212482,1.2577883472517353,0.10296341212798626,9.81307073689566,-0.0017719437173219488,-0.0019962877847022912,0.0006352047074474
1682026717.6312366,1.2866372192852682,-0.2783616870207285,9.655518254637993,0.000531400817516215,-0.001224030048710724,-0.0011082274269424
1682026717.64125,1.3459022369139717,0.023935246205919313,9.73428955069115,-0.0015208711704113394,-0.0005378355082205084,0.0007152933265902
1682026717.6512406,1.386939746546458,-0.22653842510695413,9.627409952354922,0.0006256649467961154,0.001552782497797984,0.0003002816682569
1682026717.6613686,1.1300592488522183,-0.1838099474791429,9.800842765233693,0.0012038090090221742,-0.001284753523078724,-0.0017638796836249
1682026717.6712427,1.3338401615919993,-0.0941431269496284,9.698815325420098,0.0020133152820536616,-0.0008432865466522858,0.0004668275231383
1682026717.6813638,1.3830970236350788,-0.05072829617658307,9.680301953712311,0.0011117912004437074,0.0011262578392069473,0.0012789368500821
1682026717.691265,1.3096193793602826,0.02403107351110885,9.748016982201316,-0.002113925281224181,0.0019856781751190415,0.0008076883258186
1682026717.7012975,1.1091484969471481,-0.23794835420121507,9.77822974481361,-0.0003928484166661279,-0.0013570331647712265,-0.0006813117198757
1682026717.7112443,1.4138300978974068,-0.21077934178931576,9.622375119390826,0.0026920683541795027,0.0008021496694535318,0.0010148202871792
1682026717.7213843,1.2158658543148306,0.0573156740712043,9.812725984081432,-0.0010302365406588104,-0.0006682144772805217,0.000727230088029
1682026717.7312894,1.3810417164727773,-0.18781537628053163,9.653508945785749,0.00029445658742259864,0.001339716201422612,0.0003744357835389
1682026717.741525,1.2660571524272097,-0.0529766562604695,9.752585106594774,0.0002318914786358895,0.000163635136083237,0.0023752917639799
1682026717.751402,1.1816767878325831,-0.1647271276044078,9.75092078766421,-0.0015629518946375218,-0.00017946804827692698,-0.0023129874736182
1682026717.7612474,1.3521822362857705,-0.17091685166781648,9.66080086586808,0.0007459576632267508,0.0006505326407067318,-0.0003762220859639
1682026717.7713847,1.398020499917233,-0.055208884345012095,9.681957557989449,-0.0003750034820637943,0.0029501646387309747,-0.0002744799841306
1682026717.7812948,1.2652958570416666,-0.09196898088029791,9.74679848929491,-0.0005172958628337315,0.0023466658358085404,0.0003047978842519
1682026717.7912383,1.1309028446704217,-0.1474347395369531,9.801766342244784,-0.0004915687704663129,-0.0006931772659052125,-0.0005829619605205
1682026717.8012643,1.2776814428555041,-0.21519956359705794,9.690765493048172,0.0028708794901847077,-0.0015652371780737978,0.001568015040772
1682026717.811308,1.3806133013465867,0.00888655227273437,9.724624490683922,-0.0003611804872906098,0.0006635719441511817,0.0006791635986306
1682026717.8212974,1.1114155994191413,-0.17194197492740865,9.799325483206657,-0.0007046493635888153,-0.0019497384179638236,-0.0018588699296228
1682026717.8312645,1.4637265460360305,-0.12596851199392542,9.621481424749804,0.0002527468083737435,0.0013956021973077647,-0.0006652750436328
1682026717.841288,1.2096117268785935,-0.005908131173586334,9.806144038575964,-0.002252513797767522,2.4312232384274537e-05,-0.0013790548674873
1682026717.8516786,1.2382913544500895,-0.1254350238196775,9.736263652898067,-0.0015268165033494841,-0.001194974520756797,-0.0006101547170541
1682026717.8612475,1.424785414143748,-0.02569976674006032,9.68230237703603,-0.002715547172699539,0.0010949619966023941,0.0008538726122938
1682026717.8712363,1.200124658113855,-0.12492032124841047,9.757719888159375,-0.0027915672135006013,-0.00038883192480043417,9.839899017291868e-05
1682026717.8812864,1.2244266976194038,-0.14364748826845383,9.738538869525483,-0.0012097964045899533,-0.0020685615086376745,0.0017520564382325
1682026717.89126,1.3670589043705965,-0.23444974646118183,9.635288173706416,0.0013535656081841729,-0.00020515771076073982,0.0015996920427428
1682026717.9012434,1.2607899895062007,-0.026406206290135355,9.765076022019251,-0.0009639354435953438,-0.0003430062371747622,0.000705242144119
1682026717.9112606,1.2155707729759886,-0.25347055852578737,9.713467059189263,0.0006759709453023887,-0.0010459860509386817,-0.0013756981480978
1682026717.9212918,1.38900001138089,-0.10908906540302828,9.671293123158147,0.0017845706420668201,0.00018749275569930143,0.0011593500838503
1682026717.9312851,1.2887521313155277,-0.09739349878042397,9.717428528126833,0.0006792981113952139,0.0009221005386429817,-0.0003084157489351
1682026717.944904,1.1404518562186587,-0.048722267479903936,9.817106512084612,-0.0020442657664008325,-0.002825906356712822,-0.0012397327356151
1682026717.9514,1.443313801167908,-0.3283688855837458,9.570325066957633,0.0008510107095284568,-0.0006566624822806791,-0.0014476085908822
1682026717.961304,1.2758571067606712,0.05710107897796137,9.781067545391599,-0.002227175356992487,-0.0010526705226508017,-0.0003017016116641
1682026717.9712896,1.3747367254336502,-0.3326326515804505,9.600012085173327,0.0017819788655895356,0.0012048767470852718,-0.001149918780487
1682026717.981313,1.1284716444444907,-0.0723656516228015,9.833301980924018,0.0013595240006721283,-0.0024075524626217646,-0.0008333138086013
1682026717.9913127,1.4279855104844745,-0.020364099467179635,9.67695960595207,-5.0675142456219256e-06,0.00043782076270263744,-0.0001269927144162
1682026718.001264,1.2649391022558558,-0.13801465742512167,9.71513668564735,0.0015096588619060664,-0.0005929639747454402,0.0017028750206523
1682026718.0112844,1.2898436514995084,-0.09383514314677652,9.726197030851825,-0.0004289812122176584,0.00039123953924001114,-0.0007018054731301
1682026718.021314,1.2179390134345165,-0.0884826793195121,9.766744162135973,-0.0005265851094533235,-0.0012937016637266266,9.094154107200706e-05
1682026718.0312743,1.3444039623679747,-0.10977755699995818,9.69885608936956,0.00016445219338576822,-0.0006238810510068348,0.0016082647069711
1682026718.0412767,1.3300026082726109,-0.17131753623789053,9.681259741084464,0.0007895499927210663,0.0007269088909128612,0.0002798146905266
1682026718.0512574,1.251632920025311,0.00030887416976647285,9.773690384280995,-0.0017548073388082462,0.0002906760003855798,-1.4853560190621971e-05
1682026718.0613284,1.2274323219832204,-0.1336018604340659,9.743725178811053,-0.0010574307907495186,-0.0013488357971839027,0.0008561083685495
1682026718.071427,1.3153266415899685,-0.06013150267171531,9.719470047894497,-0.0026153512684992234,-0.00040820634279196933,0.000286888551142
1682026718.0812669,1.2568925951514984,-0.3144956885134187,9.664737467898703,0.0007511938036132637,-0.0003191644846279136,-0.0012021128915361
1682026718.0912547,1.354419396591839,-0.06937791147425022,9.703518399873184,-9.333071274628776e-05,0.0011881005138591563,-0.00122816990019
1682026718.101253,1.2114049939438891,-0.091454493115559,9.756719757397297,0.00021698305986456574,-0.0006987735656953273,0.0003446281060464
1682026718.1113088,1.3149207878779954,-0.09296297023192845,9.720391817998953,-0.0004483587302988286,6.71597209493593e-05,-0.0002014859475306
1682026718.121279,1.1948098779833447,-0.21000879647461881,9.738200468848724,0.0009754533514677188,-0.0014531256089998588,-0.000907437073823
1682026718.131256,1.4323325402164482,-0.05539112989965009,9.663129141060475,0.001428063509095345,0.0006680454106144042,0.0020657446747068
1682026718.1412992,1.1916247711683985,-0.18379406701873863,9.746791998498093,0.0018706271784786623,-0.0006030161784153351,0.0001021142687537
1682026718.1513343,1.4191470528077976,-0.01694297185904061,9.678115543906845,-0.00038911741307159713,0.0025441042334542617,-0.0003612913552783
1682026718.1612685,1.2406480196148792,-0.0515919607809275,9.777658679135147,-0.0010954529223485318,0.0012778666406215052,0.0005346176784374
1682026718.1712916,1.2457965826089612,-0.3416255900639133,9.655922630939612,0.0030515597578800913,0.0011687275706693423,-0.0008124293655268
1682026718.181291,1.1621934538057441,0.042354605261804144,9.83861535403354,-0.0011978837495258306,-0.0007602361117778681,-0.0025640715740732
1682026718.1912858,1.2679054459441608,-0.04494604373843116,9.760742341222244,-0.0015134144496573253,-0.001974323769326188,-0.0003721114609501
1682026718.2020087,1.3678298725755162,-0.26887341712338364,9.61299133260214,0.0019358377922085957,0.00014688446604852414,-0.0003866221651546
1682026718.2116432,1.2466535119009845,-0.025154882072313433,9.77751187735747,-1.695131471736716e-05,-0.00048045133662802733,-0.0007818801224343
1682026718.2215133,1.3654630172792122,-0.09340038240669536,9.675358719499995,9.814471732912268e-05,0.0010819190725790294,0.0002269111445062
1682026718.231307,1.2202453160168778,0.018901012007873242,9.803794473428463,-0.0023490002380571915,-0.00036126453352302825,0.0005968351486958
1682026718.2418523,1.239252315146057,-0.3083025050106146,9.680799169361029,0.0008316577417651327,-0.0004931448741048412,-0.0015995939158014
1682026718.2512872,1.2564000530127208,-0.1226686711690612,9.725537679372382,0.0021228414272198896,-0.0017392654008612793,0.000770418076951
1682026718.2612994,1.3493176155864524,-0.02556055530867311,9.715601418467081,-0.00027735558980621777,-1.1450435495585232e-05,-0.0003404390428326
1682026718.289197,1.300435704086405,-0.12544630653590014,9.719282691303654,0.00043714248761414574,-0.00013214491838292188,0.0003744368312768
1682026718.292058,1.055692032080041,0.15761874969378048,9.949952265358299,-0.0003827826895663462,-0.0020342858247913,0.0016253905431372
1682026718.292989,2.952890862560256,0.8709488212889575,9.15162738200304,-0.0031931679201554894,0.001796036847470822,5.813977791744077e-05
1682026718.301301,1.0023503290591251,-0.3640630463489916,9.782841985207451,0.0007169326912782502,-0.0027007388798600367,-0.0008060984674952
1682026718.3112886,1.4865812807944891,-0.05779239283740955,9.633824392293405,-0.00045208999631441376,0.0015732917847538393,-0.0006883795268945
1682026718.3213236,1.1601835224713843,-0.14439067407997752,9.786517986615122,0.001387098858671641,-0.0018033012371935753,0.0012137457832582
1682026718.3313224,1.3840228964077694,-0.09537416705742097,9.676092156982339,0.0006394120782856367,0.0005454929085693852,0.0004709339572005
1682026718.3461244,1.2420351423481801,-0.11108771312193391,9.74193949251203,-0.0009482793612665372,0.0004176853940484363,-0.0020883596863709
1682026718.3512864,1.27175614135944,-0.028264532298031705,9.75374114168262,-0.0014154480984096478,0.00010737445743055108,-0.0013142390072457
1682026718.3613331,1.3602049366354418,-0.16937883605787232,9.665023106685775,0.002370927675459886,7.499077746707505e-05,0.0034481730416305
1682026718.3713038,1.316682665058035,-0.07321681807241624,9.714459584617499,-0.0004386940711569351,0.0018970193144078693,-0.0003292678285501
1682026718.3813407,1.2442498668445048,-0.12431946144582083,9.749119631575427,-0.00011829380674133644,0.0011374134493243664,-0.0004891016416363
1682026718.3914163,1.2370724270023703,-0.012459256573838675,9.774702805023958,-0.0019328785328609687,-0.0001958684562963362,0.0001348926324285
1682026718.401386,1.2026003092692417,-0.11334893777642722,9.766016621765868,-0.002655602574494801,-0.0015012167513079723,-0.0010113587033115
1682026718.4112804,1.3017630322996452,-0.20941806835658916,9.672354434171249,-0.0012489301221831372,-0.0006175555333265991,-0.0022712614283077
1682026718.4308505,1.3208076072522354,-0.11292233681212968,9.6904820721932,-2.851073193540003e-05,0.0001397874648982049,0.0006057704903073
1682026718.4319918,1.6044179987463054,-0.381640782030946,9.453009362883938,0.00040286448888534373,0.0010860188646618196,0.0001795873848609
1682026718.4412987,1.3005017156654817,-0.20596569134212617,9.674756874217064,0.0006249173256135158,0.0024748193187026503,-0.0025692767359427
1682026718.451289,1.2253857698464883,-0.02478428564852505,9.77988035238268,0.00045167524074104604,0.00042068074989398983,0.0002123829780034
1682026718.461299,1.3930206163142345,0.041273749734215305,9.722736967761607,-0.0023586997042402084,0.002261340625772101,0.0008646845106855
1682026718.471365,1.195495389459297,-0.2626620859135232,9.713963898791741,-0.00024421678003079203,0.0011858549275727205,-0.0006001052808128
1682026718.4813287,1.2200512396008045,0.00738505562012041,9.79617722707506,-0.002590392143326397,-0.00037542197570427407,0.0004198743134625
1682026718.4913511,1.34989681455775,-0.28243775845378,9.626874641441564,0.001557343420499129,0.00066879057889936,0.0014979994028695
1682026718.5012984,1.2443547669229278,-0.06637541401286935,9.75892852369342,0.00019091503700553446,7.384971038932799e-05,0.0009730904583707
1682026718.5173109,1.2739549332805529,-0.1317793567089735,9.716906555658419,-0.00025650600823544736,0.0005570300835311358,-0.0009178636957071
1682026718.5215836,1.0880905604125435,-0.18124121779918081,9.808893027597815,-0.0010183142699862144,-0.0003992427817430589,-0.0034503125481419
1682026718.5313768,1.3521985530183112,-0.06318534813482538,9.703047720293265,-2.590156446943032e-05,-0.0004558857484122322,0.0004623492585383
1682026718.5413115,1.3118262313053288,-0.20459203730697242,9.670364225683217,0.00028142453820886637,0.0013594732439388686,-0.0027857151709608
1682026718.551308,1.1567890486305246,0.027222118160738683,9.83017861059866,-0.0015301842697046494,-0.0018796799907220781,-0.0002867978893331
1682026718.5613625,1.5283235723163917,-0.1027834722726292,9.598532378389889,-0.0004889551115847632,0.002623073603595642,0.0023421438398659
1682026718.5713372,1.061048908503725,-0.2340623074419094,9.805817190669256,9.48187607118841e-05,-0.0010787306829107023,-0.0008787243988476
1682026718.581323,1.4994165066023575,-0.14239361862182254,9.591174916258181,0.001180697624928163,0.0033338718050213044,-1.0001136746231676e-05
1682026718.591359,1.2119907695088084,0.04341151331464554,9.825967673166483,-0.0023482540300030397,0.0017498734295018348,-0.0003158383898548
1682026718.6013272,1.218970644760096,-0.2145697938820005,9.726985993723385,-0.0004353187787222291,0.00042553547623303017,-0.0004272306233755
1682026718.611335,1.3205928269221618,-0.009447700844540092,9.738027112680857,-0.0014199117214017609,0.0004903473267852751,0.0017189207627384
1682026718.621544,1.1985705756684877,-0.2140204898093209,9.731115408298256,-0.00021216874394063784,-0.0006801410352459081,-8.228108176213896e-05
1682026718.6313243,1.3207345822828853,-0.07495509634633117,9.724405493678368,-0.0007080144380974432,-1.854546233838056e-05,2.8723023075636267e-05
1682026718.6413352,1.3198244271640025,-0.2526132707193113,9.65879450500042,0.002660006391866927,0.0003704231305468159,0.0004005066456161
1682026718.653409,1.346751789786087,-0.007601608752224229,9.717350396504711,-0.0008160528615783642,0.002531059927885167,-0.0011294518027566
1682026718.661353,1.1234751343634537,-0.14879128169539463,9.793060195033396,0.0005008552920788314,-0.000519218709471937,0.0003342003200091
1682026718.6713476,1.2996476520001519,-0.09430663165789689,9.714568000965,0.0010141914556715914,-0.0007415982024098157,0.0020075915834754
1682026718.6822171,1.2343358712743044,-0.09159787294194184,9.739893169126974,-0.0006763366106776662,-0.0008615486540855603,3.7686304364379286e-05
1682026718.691689,1.3670255745906548,-0.2530265904411939,9.634127270482413,0.0011643513238210966,0.0013885198126764773,-0.0019881151512376
1682026718.701352,1.292982985530579,0.10591767118289024,9.793694071305,-0.0020182061965791516,0.0009031069729056155,0.0005152600223087
1682026718.7113435,1.1262680986748186,-0.16063208974190718,9.78596877978022,-0.0005034850080101347,-0.0025159648091605366,0.0009105084335319
1682026718.7214844,1.3207841547412094,-0.15619114338952603,9.696573184634161,-3.5960713618056216e-05,-0.0015555866981867596,8.535313996302688e-05
1682026718.7315638,1.3953691097536585,-0.17239503964054617,9.637262294952178,0.0009013206979847498,0.0009880497091230836,-0.0004466023657582
1682026718.7420342,1.2330236246942794,-0.14186638939888446,9.75709980713032,0.0013081188950907895,-0.00010456649498031965,-0.0013656375359855
1682026718.7527273,1.3833190056435887,0.010761793465736098,9.719644180947142,-0.00024012173229398696,0.0012432288328179991,0.0007909245194755
1682026718.7624242,1.1342084344505063,-0.1759244724346387,9.778573729476989,0.0001715265659468381,-0.0013432572898575846,-0.0003248151753209
1682026718.771374,1.5111127156677253,-0.07823739369612862,9.622693305213064,5.2313624818475224e-05,0.0026212142573967295,0.0001837001053504
1682026718.7813487,1.1218929138010998,-0.17305774360698897,9.79074787607022,0.0007765301919865325,-0.00040334934246772844,-0.0003348494775704
1682026718.7913334,1.2833864622260855,-0.08767979774879305,9.714264470129539,-0.0004099890051978547,0.00033350294511593463,-0.0016618120845518
1682026718.8013816,1.2972166083392311,-0.03196551833259116,9.742477780186633,-0.0022897842794088337,0.0007700956934643185,-0.0015984856419376
1682026718.81133,1.4626669344443135,-0.08187572488510807,9.628956558807417,-0.0011054998005553122,0.003568547385662877,0.0014551123475544
1682026718.821341,1.2623472891958702,-0.03544311405421127,9.761039709517227,-0.0029510029166644734,0.0031323240330193088,0.0011575264378339
1682026718.8313332,1.1430933793449007,-0.33356885653883217,9.722665916944468,8.286939311007319e-05,0.0011273654782101448,-0.0016100291524193
1682026718.8414187,1.2229247513411856,0.043750514569879,9.798817123923685,-0.001214279171887605,-0.0012765658726431113,0.0018995731241889
1682026718.851364,1.344677171558689,-0.1968030290159321,9.661740531217758,-7.992403428377317e-05,0.00026720296688583916,0.0013769043306242
1682026718.8613694,1.2978609938071008,-0.18159989029689538,9.694585965790086,-6.540310901939176e-05,0.0013508911173980335,-0.0010281322885416
1682026718.8722546,1.1794038516184053,-0.16422495145307195,9.757790200805044,0.0018874016982726371,-0.0013939134832667253,0.0002317427296079
1682026718.882619,1.2889797018612559,0.017782363583272127,9.762349272169953,-0.0015763597691571328,-0.0008697701969294563,-0.0007751890353969
1682026718.8913786,1.2743666363405237,0.030872871141764163,9.784783347181326,-0.0032132666638304145,-0.0016744328795049177,0.0012882699537445
1682026718.901379,1.3299916961090497,-0.35163792589286275,9.614994336155627,0.00013019648922815716,0.00039647296046177086,-0.0016588181153051
1682026718.911384,1.1418032167624874,0.0208868623962752,9.849036795287883,-0.0012667768058642476,-0.003552714717235911,0.0011317891056537
1682026718.9213889,1.4908489985959938,-0.17643906393956782,9.589107488144057,-0.0004885829703352917,0.0011459852910281514,0.0001643195154033
1682026718.9313457,1.2975154412269168,-0.12664265164723032,9.713520824073226,-0.00026468737829772273,0.0013437976358511058,0.0001874148018546
1682026718.9414032,1.2479470924133937,-0.01411438072828002,9.77353458711274,-0.0009613234405869626,-6.73324198500713e-05,0.0024084515624568
1682026718.9519715,1.3066905899002756,-0.10318755965701631,9.704451707303015,-0.001765995160047408,0.001043178790223541,0.0011701698402762
1682026718.9623213,1.213114485900128,-0.27150845974153187,9.709255061617352,0.0014839471609637345,-0.0002494837791358382,0.0007242398440726
1682026718.9713497,1.3333939793001723,0.010565457326500783,9.740063864730493,-0.0007005682756549322,0.0004948165571875163,0.0010785242064744
1682026718.981345,1.2012968294297859,-0.16128237303883078,9.755891514343299,0.001801001848825125,-0.00222502494494031,0.0037770893994607
1682026718.9913578,1.2336265016409782,-0.12935870827214965,9.756770397146411,-0.0007284864183768924,-0.0017746280093164726,-0.0012121604651324
1682026719.0013933,1.5775288456078327,-0.03460611795952996,9.594820272836394,-0.000429338841322665,0.003045893745008357,0.0024486577475331
1682026719.0113633,1.104613859640334,-0.18742342065594103,9.790755372403884,-0.0003242962252715761,0.0002951347779108857,-0.000492439967405
1682026719.0215137,1.3354343165187275,-0.03713397022219397,9.730130159496811,-0.0010049285897765626,0.000556650213389911,0.0015274239138821
1682026719.0313728,1.2824711001389795,-0.14436077440232647,9.708677348489209,-0.0013741023030109374,0.0012182673100215428,-0.0004887090891711
1682026719.0419545,1.3417997255696683,-0.10968195934144453,9.714330817082883,0.00016669159729712472,0.0013795650598788785,0.0022501462825462
1682026719.051382,1.0672291130883191,-0.2464352380411544,9.77643307968368,0.0007377673782256948,-0.0014985943973440917,-0.0015116798587254
1682026719.0613518,1.2945307858374562,-0.07668975142161888,9.72333424004333,-0.0002006324534550056,-0.0010083261578281808,-0.001785482409235
1682026719.071379,1.2867674257337645,0.060797413317136284,9.782373479163255,-0.0032762224740313325,-0.0012229220998302235,-0.0011328110832832
1682026719.081339,1.3740984305877795,-0.24887901617318695,9.616174093325942,0.0007146720221218441,0.0002824892430205781,0.001104617827747
1682026719.0913851,1.263230136055248,-0.028921458629707374,9.755355736648626,-0.0009121456450598584,-0.00028600485081238075,0.0017777507217547
1682026719.1015527,1.2109392969398687,-0.24295446336001889,9.718281521049727,0.0010141963098386218,-0.0013424966661437503,0.0001233531964831
1682026719.1113946,1.3214654311822738,-0.06698667176083759,9.715626068291591,-0.00019503900345181667,-0.0001909972186693813,-0.0005535263463966
1682026719.1215155,1.247898046957423,-0.19104580543817462,9.71827189838216,0.0006465146946823587,-0.0004201174519396841,-0.0022381049476675
1682026719.1314256,1.2845764053421698,-0.08286681379164061,9.726934323328168,0.000575361764615789,-0.000638800679589343,-0.0012974700786284
1682026719.1413488,1.2242344557650462,-0.023494074204089357,9.78578330142895,-0.0003995512337464014,-0.002530127272170484,0.0003193050959967
1682026719.15135,1.427417212248321,-0.2234798761491323,9.611040925777742,0.0016869698867495691,0.000630777362177194,-0.0001698492689169
1682026719.1613798,1.3434747616095413,0.045320823425181456,9.744074369682531,-0.00017827365964636184,0.0010502547685248339,0.0026215381093211
1682026719.1713412,1.1707270809546129,-0.3246289258548501,9.703762191917729,0.0022182236904428492,0.0002172741099132093,-0.0013011823304109
1682026719.1824026,1.2937864196083246,-0.12242380933179259,9.720959064209428,0.0015938483480086763,0.0010662786849544624,-0.0025409729115776
1682026719.1924891,1.3009209191505504,-0.01369545702333495,9.76196795720619,1.2082269841338417e-05,0.0008535599458918932,-0.0017635090172402
1682026719.202824,1.2972991942486671,-0.015532030772070968,9.736363450251453,-0.0010712359764293415,0.0004478750531815235,0.0005458046087883
1682026719.2120588,1.1798214684388955,-0.192775618584484,9.741335090045338,0.00030191515380354,-0.0013626143671579267,0.0002116386184357
1682026719.2214634,1.2756589418879123,-0.15898376407813766,9.711879349619267,0.0004088398168323961,-0.0009178375884348665,-0.0012326667912415
1682026719.2313938,1.367305160052014,-0.019677960293430885,9.726773879035024,7.318715306001348e-05,-0.00028489372944882067,0.0012655254266578
1682026719.2413626,1.2851476965294122,-0.24554712447033505,9.677699873808006,0.0021522774765485846,0.00011478910333224839,-0.000217174774792
1682026719.2514043,1.2810088254261671,-0.01703888320598659,9.752860315600463,-7.805764993982482e-05,6.45441528031352e-05,4.363419598716104e-05
1682026719.2613635,1.2971919115276036,-0.12718853113681075,9.708748561706264,0.0014366433911538615,-0.00023682175935149435,0.0018895204865262
1682026719.2713645,1.3067698829542318,-0.0817824865117537,9.72387718818376,-0.001117798234595099,0.0014350619575590664,-0.001826471778389
1682026719.2814028,1.0411789120842625,-0.1884575998741425,9.827545104049442,0.0015197131052382858,-0.004422567031510786,0.0002868830796219
1682026719.2914174,1.5922326531643545,-0.003114712190534823,9.591877889716567,0.00045690411383910703,0.0013560999935631677,0.0027709189906604
1682026719.301517,1.1915002872557958,-0.004045965018954342,9.802966008620396,-0.0029338544281198482,0.00021951912848540723,0.000864301096823
1682026719.3113906,1.1395837708845153,-0.2778578989269995,9.739420773099283,-0.0008588669063304889,-0.002046579636613762,-0.001590650657948
1682026719.3215072,1.4840280898392806,-0.03851201383205381,9.642658532125687,-0.0005090785740028469,0.0008781503683582838,0.0019155834760172
1682026719.3314345,1.1991883870503395,-0.2708078753709247,9.720162336854822,0.0018311635867792582,-0.0001787206193004254,-4.799269494784272e-05
1682026719.3413916,1.1799469254376762,-0.09690692315912157,9.763949109666184,0.0009668846076482314,-0.0016308489873297157,-0.0010523524962477
1682026719.3513598,1.4598066889338022,0.06284438058853553,9.682356957682462,-0.0008950374281140581,0.0009850640115947843,0.0025745842011533
1682026719.3613656,1.1653636245284216,-0.23901398036451715,9.752410719709955,-0.00021440261963908867,-0.0003359241011792859,-0.0010568172566704
1682026719.37138,1.3908052138457967,-0.08332901110050066,9.659057725859942,0.0003521922810746081,0.0013032115365028307,0.0014436166546661
1682026719.381362,1.2688512198874686,-0.08844144671972055,9.732575955071528,0.00031570583217437585,0.0006982121880169322,0.002374548801396
1682026719.3914926,1.1798882523809862,-0.10147243195460687,9.782497578959433,-0.001566328689914929,-0.0003351849588832047,-0.0008772550046555
1682026719.401398,1.3689306499306197,-0.1645078228441606,9.657629060403039,0.0006308707208797078,0.0008833620476452161,0.000987272114668
1682026719.4114263,1.167339384357264,-0.11496071533111879,9.783791972814312,0.0003063995575843083,-0.0011316412344785456,-0.0001616247592605
1682026719.421402,1.3593328486865792,-0.043557336140911763,9.69456537496098,-0.0011930300609671147,0.0005342949456565882,-0.0002186362527422
1682026719.4313786,1.3076806407543413,-0.38604934263793883,9.636693713148135,0.0038942041845626664,0.0013218592614046313,-0.0016770655185095
1682026719.441379,1.3484087510637024,0.12544030853493787,9.766219300552498,-0.0005444634502158203,0.002107509577135366,-0.0002152504295222
1682026719.4513788,1.1440033017280606,-0.19336515915534427,9.761209830465164,0.0008804707848002341,-0.0004864285118282247,-0.0004350523360185
1682026719.4613948,1.2806441172282221,0.018599858530093476,9.76553682429289,-0.0012437094767117692,-0.0010564015269297928,0.000863573442854
1682026719.4713895,1.3318746494844036,-0.08466948576004635,9.708140069627838,-0.0024838600033086984,0.00045309299750204233,-0.0002175005048624
1682026719.481378,1.331722665054824,-0.277075597387901,9.638894234862239,0.001852377950742244,0.0009619726396125104,0.0013709237553999
1682026719.491382,1.2272071807316336,-0.04324170164567048,9.777053335200788,-0.00030085260902625754,0.00022361881244637472,-1.895545405519402e-05
1682026719.501393,1.2831301798835983,-0.089294876283636,9.721605426496872,-0.00023116170660069223,-7.441761426255158e-05,0.00107850092341
1682026719.5114148,1.3362253870036893,-0.08239629117159922,9.729578560913664,-0.00046735186241396264,0.0006270647488133758,0.0013199076509923
1682026719.5214636,1.1556157657597665,-0.08373383341934823,9.806385586794788,-0.001210920045086097,-0.0020137945510170624,0.0008736273028776
1682026719.531396,1.2794041911794936,-0.14677158236950563,9.722633107712545,-0.00150112865894871,-0.0014978244885434616,-0.0011778954777978
1682026719.5414343,1.3235055326724923,-0.18078632441059977,9.66494541851466,-0.0009549996797286953,0.00011000363874678452,-0.0023718340218178
1682026719.5513916,1.437159587315751,0.006270460861271943,9.677554814755466,-0.0014307349709329219,0.002015103727787079,0.0015110335096838
1682026719.561405,1.1000431406394868,-0.39195927353579146,9.736863425028023,0.0026700831246709187,-0.000966572122134676,-0.0013283892896137
1682026719.5713987,1.27087019064196,0.08831796627525966,9.789868091664577,-0.001472428488364848,-0.001370076582846632,-0.0009338859364501
1682026719.5813894,1.3955518863369798,-0.10579524709518874,9.661577739249575,-0.00038689128572978737,0.0004914620671518634,0.0011541283910051
1682026719.5913937,1.202487053303691,-0.1246952307255137,9.763925508342064,-0.0006677781704470474,-0.0007822209027753915,0.0003394152607657
1682026719.601395,1.4087237635550836,-0.10837103861829922,9.655430340420144,-0.0005161605481541077,0.0018079823424037033,0.0006437857972346
1682026719.6113997,1.152758443041518,-0.16575443450167,9.786600296160886,-0.0006409517310685071,-0.00031541704431118213,-0.001436407108616
1682026719.621413,1.232197312033187,0.07175661696535905,9.817035020311717,-0.0020997614238823705,-0.002822927319474622,0.0030793779168166
1682026719.631435,1.368113989704083,-0.26236285792203484,9.623895580181337,-0.0004140805098153392,1.574824465365969e-05,0.000263807816606
1682026719.642547,1.3362939158664062,-0.17794961652456417,9.676305113136031,0.0009862483371047713,0.0013449353062171562,-0.000136285916727
1682026719.6514268,1.19571318760119,-0.031064753516489196,9.799293676815866,-0.00020955509329200622,-0.0007498131537021966,0.0006959257751591
1682026719.6614132,1.3568260824928735,0.0038549885396134765,9.726071357953707,-0.002914507875732727,0.0007626588219296336,0.000270141741436
1682026719.6713908,1.3635862541636223,-0.26634944279782935,9.632291346628737,0.0009266374071249191,0.0020464084753902705,0.0014782418019026
1682026719.6814296,1.1893069368046238,-0.18175954938089833,9.743900148920009,0.0009083700001540893,0.0009422242333755784,-0.0007234293863288
1682026719.6913805,1.22289983737145,0.043935524772406837,9.804539086185686,-3.781515697085727e-05,-0.0016412619189221933,0.0035819066559784
1682026719.701419,1.243321097453889,-0.06094623738901038,9.768089300934328,-0.0012124051452493893,-0.0026098565787201077,0.0035141142887883
1682026719.711409,1.3379019926041857,-0.23923199198819778,9.653656810845195,-0.00037943021844127884,-0.00014817514674117665,0.0001632054207735
1682026719.721433,1.1824663287120907,-0.04883597582402334,9.79628626329475,-0.0013897307975927991,-0.0025986647638139094,0.0011317948682122
1682026719.7314053,1.4612278934102703,-0.20301696566624822,9.596697363232312,7.27833199764201e-05,0.0014216736295736805,0.0003610311413072
1682026719.7415006,1.1898497037736255,-0.11831885312716008,9.770763991687522,0.00044236632535620327,-0.0008965741245221908,0.0007376600859575
1682026719.753348,1.3273448766856573,-0.12129281290119687,9.697692769761375,0.00012610318020896534,0.00045160724601730194,6.598069908845031e-05
1682026719.7615278,1.2538133464032037,-0.0714768808883743,9.750190995324102,-0.0006033325031804164,-1.7400356280616405e-05,3.95418481789788e-05
1682026719.7714808,1.2166609460171098,-0.0852844744585168,9.776877500774022,-0.0017395373610101755,-0.0012057819777636315,-0.0014122122794501
1682026719.7814488,1.4489797851513717,-0.1214240782640106,9.610140666975857,-0.0003470538896830331,0.0016265616192689674,0.0012781892308853
1682026719.7914224,1.1991249759963145,-0.09862567710540249,9.764677954416031,-0.0012116534313469309,0.0002396337468541652,0.00043368617649
1682026719.8014574,1.2882620215059795,-0.16432864148052487,9.700047831438765,0.0008923737559349984,-0.00025582113640421013,0.0021271901076548
1682026719.8114147,1.1303050222572093,-0.03288413247336707,9.838397701542402,-0.002297968219672808,-0.00271713163822558,-0.0004529444396607
1682026719.821438,1.4036200571220232,-0.16828210326870816,9.641161861456983,-0.0010175857802414427,-0.00019323643819542063,-0.0002804511588178
1682026719.83146,1.2940222061581876,-0.1071362367515344,9.706508003024947,-0.0005016454989997476,-0.00016940264083237247,0.0008531506626755
1682026719.8414931,1.2444814808487799,-0.0021154533421033524,9.777889460639189,-0.00291262729206599,-0.000864542503933698,0.0006933206330873
1682026719.851519,1.3277698561999576,-0.3166166982285457,9.621396627650915,0.0012228471679628715,0.00027090563717261756,0.0003185903059207
1682026719.8614223,1.1835088897059045,-0.12118302974391033,9.772321117162699,0.0017819813163474486,-0.0021754557879364264,0.0009622828091383
1682026719.8714926,1.3911440748168125,-0.0797316496417979,9.679832649521424,0.00022631035350124883,0.0005365313250458332,-0.000667535596352
1682026719.8827984,1.2668209650349778,-0.16125477666443389,9.707748053286105,0.0020013965140725804,-0.0001660353212751224,0.0005316536279283
1682026719.8914545,1.4032294270556849,-0.07132489939532438,9.664913702179762,0.0008249475281561009,0.002283706403592181,-0.000115056185808
1682026719.9014783,1.1813524188001612,-0.08398098966242937,9.785327890108213,-0.0003738875513847254,0.0005253533958100594,-0.0014818889450393
1682026719.9114237,1.2952418610550385,-0.2762145932685881,9.65921518576987,0.0033480958849134252,0.0007328540258105476,-0.0010035497963539
1682026719.921502,1.232790156932291,-0.017160528554831314,9.771974669226248,0.0011538964542866272,-7.477284732354634e-05,-0.0010489887919388
1682026719.9347882,1.46079037900159,0.04113081813838471,9.678824618745722,-0.001108505738659932,0.0034780288770301314,0.0030968827066831
1682026719.9630194,1.173943297112263,-0.15170739172016637,9.764302892542707,-0.0007560579021791971,-0.0016159266121247217,-0.0004752985097579
1682026719.9814525,1.3178480270200275,-0.15814397123859666,9.693847936813912,0.0011639453075431747,-0.0004692684904116641,-0.0001672150230146
1682026719.984002,1.3497238947959465,0.3600013111577694,9.846389486739925,-0.0013193218194959978,-0.00016455646170179374,-1.037622691315806e-05
1682026719.9846785,1.935712804163109,-0.7634210100610189,9.146832603039286,0.0001707941927761553,0.0004132289582926816,0.0010263739840016
1682026719.9853568,-0.7006508567128356,0.2725022921503509,10.937692748052596,-0.0007184336248355356,-0.0022391761939540176,0.0004046108677871
1682026720.0041103,1.3308833896368295,-0.11442620146676122,9.696763124936519,-0.0002784818797211024,-0.0007021228686964456,0.0010304552141465
1682026720.0133576,1.3155957279239523,-0.18343552808854122,9.67685090547204,-0.0007005574670744965,0.0011158089457945842,-0.0025242202811054
1682026720.0253298,1.3181206482799626,-0.04407012163045105,9.729731498141128,-0.0008983718931159908,0.0009038487161187961,0.0003491028781868
1682026720.033332,1.1574119035612185,-0.24494670029857382,9.740126704234706,0.0005324973857948229,-0.0006734412200814431,-0.001128358430054
1682026720.0414238,1.4456858739933944,0.07710954479033684,9.704108887945855,-0.001472074240854519,0.0013076728530543235,0.0008557582494691
1682026720.0514193,1.2299007894027152,-0.1767969298024413,9.719109874125639,0.0009981633913137208,-0.0003895576132438843,0.0029065242141373
1682026720.0614226,1.1838734732031027,-0.09850167113579142,9.788446486489073,-0.0022093123882076337,-0.0007777527823715419,-0.0023733339168242
1682026720.0776098,1.2922028841380508,-0.21548457800456527,9.688980994672981,0.001795006823134782,-0.0006071301473081527,-0.0014133415080718
1682026720.0814154,1.5162412487328976,-0.018963225948420828,9.636502369153126,0.0008238303659407277,0.001421659324399456,-0.0018775045301876
1682026720.091439,1.1871464732767614,0.039063435702095646,9.830461172754344,-0.0014128319601217903,-0.0010862107591496934,4.735727439450824e-05
1682026720.1014168,1.357548278609121,-0.1962220408247844,9.642185088952365,0.0001294523017775161,0.0006825780473776101,-0.0005214776739589
1682026720.1114662,1.2076947945708483,-0.02123549348877313,9.80055170795293,-0.0024231338050680826,-0.0007345314839850192,-0.0014785203512869
1682026720.1214757,1.3911375477971617,-0.12837608949896462,9.663122459351536,-0.0005992340374166164,0.0005067321671066587,0.0014927678438257
1682026720.1314757,1.228593660602353,-0.1928745600496958,9.730229975335185,7.990948759639571e-05,-0.00025918420269221184,0.0001784987851865
1682026720.1414938,1.320115549048173,-0.011727778678836124,9.745875008672789,-0.0022562388105713243,0.0005339312368390007,-0.000441396971058
1682026720.151468,1.1586870270201055,-0.08409570176286177,9.80079842258927,-0.002397056751256761,-0.0022343273226680957,4.997172969209754e-05
1682026720.1614485,1.306252110041372,-0.23230753619598712,9.670376323945192,-0.0005891760479709785,-0.0010933031560474969,-0.0014401559148095
1682026720.1714518,1.4757371402391783,-0.14056384167409525,9.613066110078181,-0.000148859447865785,0.0030395680150362902,-0.0020503424003831
1682026720.1849155,1.2400986060387738,-0.05909902229644191,9.77566901209153,0.00041590815190458786,0.0003309055825717919,0.0018194650855153
1682026720.19181,1.2657104527080183,-0.23156810161578878,9.705112645035022,0.0013487064452073758,0.0004043027959737807,0.0003964110381789
1682026720.2014782,1.157225723028197,-0.026752393975742046,9.815343463076944,0.0001052305059384973,-0.002535703914624531,0.0017695663262716
1682026720.2114356,1.3667228914091494,-0.17784262820632865,9.638923551984252,6.125421184530497e-06,0.00028062099238904315,-0.0009446841560415
1682026720.221513,1.330514269396061,-0.014671164544055506,9.723251673664132,-0.0011498357786895086,0.0008058771049384509,0.0005051995266117
1682026720.2322986,1.2442217470339634,-0.16384647240026637,9.72262033082814,0.0007172925406482656,-0.0005985582037599426,0.0021014781249109
1682026720.2420132,1.3104769866783925,-0.12429982426101947,9.722609405156835,-0.0002371255516288042,0.0005853437382111173,-0.0003341079119704
1682026720.251511,1.2718824056798337,-0.21980027920302098,9.698600032925683,0.003371933285401628,-0.0007460788252640768,0.002625636859972
1682026720.2615166,1.2975334440146897,0.08406769523420893,9.788587248350806,-0.0023862705180998285,0.00030854687060949534,-0.0002219724830351
1682026720.2715142,1.1314900872617413,-0.19409982788337982,9.765865168636866,-0.0009635647728808519,-0.0026482019030488703,-0.0006291625451408
1682026720.2814767,1.33679343142781,-0.15952383128827627,9.668124914681162,6.87118757851597e-05,-0.0015861447730201523,-0.0001426310174278
1682026720.2915187,1.3433648059743608,-0.0748885807238112,9.695680035074814,-0.0002602339555670369,-0.0005255391706827187,0.0008400988170765
1682026720.301469,1.437946789951363,-0.21455919752414804,9.605564027995289,0.0011289398453411745,0.002980328579836044,-0.000341187593352
1682026720.3120189,1.121688416478315,-0.09665319879585087,9.828241602508715,0.00040247625281310663,-0.0006283469260411358,-0.0004548147682212
1682026720.3215551,1.2469551971113846,-0.08811984884526211,9.727582124984849,-0.0001857119419182016,-0.0011495105460112608,-0.0003415566299222
1682026720.3315296,1.3303526304574398,-0.04720709109628976,9.727033086899565,-0.0010056585484568828,-0.0007162713554028817,0.0007097205251343
1682026720.3414545,1.2759756875227974,-0.1748190173622852,9.70632489776229,-0.0011952764187783966,4.3672344741399806e-05,-0.0021021360427252
1682026720.354949,1.3694711710985634,-0.08470281727823874,9.686411014389849,0.00012905983725205615,0.0012197595522714614,0.0016179459797572
1682026720.3648844,1.1650200836673534,-0.220609153540376,9.738728797214183,0.00045688770752992034,-7.006776926065071e-06,-0.0017862451624236
1682026720.3750548,1.3957782519725912,-0.05285832123146408,9.683184324173792,0.0008983276337191211,0.0013050726040728347,0.001104955315765
1682026720.3814633,1.2333675077270425,-0.04675836491411071,9.76995187883476,0.00011752186824144753,0.0004914645698106604,0.0015352466306071
